Participant ID,Trial Number,Response,Correctness,Start Timestamp,End Timestamp,Reaction Time,Sample Number,Sample Order,Sample Time,Comparison Time,Condition,Path,Foil
1,1,left,False,2023-07-28 11:39:29.687,2023-07-28 11:39:46.595,16.908,28,right,7000,14000,H,"[(0, 4), (0, 3), (1, 3), (1, 2), (0, 2), (0, 1), (1, 1), (1, 0), (3, 1)]","[(0, 4), (0, 3), (1, 3), (1, 2), (0, 2), (0, 1), (1, 1), (2, 1), (3, 1)]"
1,2,left,True,2023-07-28 11:39:44.111,2023-07-28 11:40:00.881,16.77,43,left,7000,14000,H,"[(1, 3), (2, 3), (2, 2), (3, 2), (3, 3), (4, 3), (4, 4), (3, 4), (2, 4)]","[(1, 3), (2, 3), (2, 2), (3, 2), (4, 2), (4, 3), (4, 4), (3, 4), (2, 4)]"
1,3,right,True,2023-07-28 11:40:18.902,2023-07-28 11:40:34.253,15.351,88,right,7000,14000,H,"[(3, 4), (4, 4), (4, 3), (3, 3), (3, 2), (2, 2), (2, 1), (3, 1), (0, 3)]","[(3, 4), (4, 4), (4, 3), (4, 2), (3, 2), (2, 2), (2, 1), (3, 1), (0, 3)]"
1,4,right,False,2023-07-28 11:40:12.268,2023-07-28 11:40:28.986,16.718,24,left,7000,14000,H,"[(1, 4), (2, 4), (2, 3), (1, 3), (1, 2), (2, 2), (2, 1), (3, 1), (3, 0)]","[(1, 4), (2, 4), (2, 3), (1, 3), (1, 2), (1, 1), (2, 1), (3, 1), (3, 0)]"
1,5,left,False,2023-07-28 11:40:44.021,2023-07-28 11:40:48.886,4.865,31,right,7000,14000,H,"[(3, 2), (2, 2), (2, 3), (3, 3), (3, 4), (4, 4), (4, 3), (4, 2), (0, 4)]","[(3, 2), (2, 2), (2, 3), (2, 4), (3, 4), (4, 4), (4, 3), (4, 2), (0, 4)]"
1,6,left,True,2023-07-28 11:41:05.921,2023-07-28 11:41:14.373,8.452,64,left,7000,14000,VH,"[(4, 0), (4, 1), (3, 1), (3, 2), (4, 2), (4, 3), (3, 3), (3, 4), (0, 2)]","[(4, 0), (4, 1), (3, 1), (3, 2), (4, 2), (4, 3), (3, 3), (2, 3), (0, 2)]"
1,7,left,True,2023-07-28 11:41:31.394,2023-07-28 11:41:35.840,4.446000000000001,69,left,7000,14000,VH,"[(3, 4), (2, 4), (2, 3), (1, 3), (1, 2), (2, 2), (2, 1), (3, 1), (0, 2)]","[(3, 4), (2, 4), (1, 4), (1, 3), (1, 2), (2, 2), (2, 1), (3, 1), (0, 2)]"
1,8,right,True,2023-07-28 11:41:52.873,2023-07-28 11:41:59.193,6.32,79,right,7000,14000,VH,"[(1, 1), (1, 2), (2, 2), (2, 1), (3, 1), (3, 2), (4, 2), (4, 1), (0, 4)]","[(1, 1), (1, 2), (2, 2), (2, 1), (3, 1), (3, 2), (4, 2), (4, 3), (0, 4)]"
1,9,left,True,2023-07-28 11:42:16.221,2023-07-28 11:42:23.666,7.445,62,left,7000,14000,VH,"[(1, 0), (2, 0), (2, 1), (3, 1), (3, 2), (2, 2), (2, 3), (2, 4), (0, 1)]","[(1, 0), (2, 0), (3, 0), (3, 1), (3, 2), (2, 2), (2, 3), (2, 4), (0, 1)]"
1,10,left,True,2023-07-28 11:42:40.691,2023-07-28 11:42:49.391,8.700000000000001,49,left,7000,14000,VH,"[(0, 0), (0, 1), (1, 1), (1, 0), (2, 0), (2, 1), (3, 1), (3, 2), (1, 3)]","[(0, 0), (0, 1), (1, 1), (1, 0), (2, 0), (3, 0), (3, 1), (3, 2), (1, 3)]"
1,11,right,True,2023-07-28 11:43:06.423,2023-07-28 11:43:16.632,10.209000000000001,29,right,7000,14000,V,"[(2, 2), (1, 2), (1, 1), (2, 1), (2, 0), (3, 0), (3, 1), (3, 2), (4, 4)]","[(2, 2), (1, 2), (1, 1), (1, 0), (2, 0), (3, 0), (3, 1), (3, 2), (4, 4)]"
1,12,right,False,2023-07-28 11:43:33.654,2023-07-28 11:43:44.640,10.986,21,left,7000,14000,V,"[(0, 4), (0, 3), (1, 3), (1, 2), (2, 2), (2, 1), (1, 1), (0, 1), (3, 1)]","[(0, 4), (0, 3), (0, 2), (1, 2), (2, 2), (2, 1), (1, 1), (0, 1), (3, 1)]"
1,13,left,False,2023-07-28 11:44:01.663,2023-07-28 11:44:11.028,9.365,27,right,7000,14000,V,"[(0, 4), (0, 3), (1, 3), (1, 2), (2, 2), (2, 1), (1, 1), (1, 0), (4, 0)]","[(0, 4), (0, 3), (0, 2), (1, 2), (2, 2), (2, 1), (1, 1), (1, 0), (4, 0)]"
1,14,left,True,2023-07-28 11:44:28.049,2023-07-28 11:44:32.616,4.567,57,left,7000,14000,V,"[(4, 1), (4, 2), (3, 2), (3, 3), (2, 3), (2, 2), (1, 2), (0, 2), (0, 3)]","[(4, 1), (4, 2), (4, 3), (3, 3), (2, 3), (2, 2), (1, 2), (0, 2), (0, 3)]"
1,15,left,True,2023-07-28 11:44:49.624,2023-07-28 11:44:53.647,4.023000000000001,85,left,7000,14000,V,"[(2, 1), (2, 0), (3, 0), (3, 1), (4, 1), (4, 2), (3, 2), (2, 2), (4, 3)]","[(2, 1), (2, 0), (3, 0), (4, 0), (4, 1), (4, 2), (3, 2), (2, 2), (4, 3)]"
1,16,right,True,2023-07-28 11:50:45.896,2023-07-28 11:50:57.537,11.641,6,right,7000,14000,H,"[(4, 4), (4, 3), (3, 3), (3, 2), (2, 2), (2, 3), (1, 3), (1, 2), (1, 1)]","[(4, 4), (4, 3), (4, 2), (3, 2), (2, 2), (2, 3), (1, 3), (1, 2), (1, 1)]"
1,17,left,True,2023-07-28 11:51:14.568,2023-07-28 11:51:25.583,11.015,38,left,7000,14000,H,"[(0, 0), (1, 0), (1, 1), (2, 1), (2, 2), (1, 2), (1, 3), (1, 4), (4, 2)]","[(0, 0), (1, 0), (2, 0), (2, 1), (2, 2), (1, 2), (1, 3), (1, 4), (4, 2)]"
1,18,right,True,2023-07-28 11:51:42.612,2023-07-28 11:51:54.853,12.241000000000001,82,right,7000,14000,H,"[(1, 0), (1, 1), (2, 1), (2, 0), (3, 0), (3, 1), (4, 1), (4, 0), (0, 3)]","[(1, 0), (1, 1), (2, 1), (2, 0), (3, 0), (3, 1), (4, 1), (4, 2), (0, 3)]"
1,19,left,True,2023-07-28 11:52:11.887,2023-07-28 11:52:22.717,10.83,14,left,7000,14000,H,"[(0, 3), (0, 4), (1, 4), (1, 3), (2, 3), (2, 2), (3, 2), (3, 3), (0, 0)]","[(0, 3), (0, 4), (1, 4), (2, 4), (2, 3), (2, 2), (3, 2), (3, 3), (0, 0)]"
1,20,right,True,2023-07-28 11:52:39.728,2023-07-28 11:52:50.848,11.120000000000001,32,right,7000,14000,H,"[(0, 4), (1, 4), (1, 3), (2, 3), (2, 4), (3, 4), (3, 3), (3, 2), (4, 2)]","[(0, 4), (1, 4), (1, 3), (2, 3), (2, 4), (3, 4), (3, 3), (4, 3), (4, 2)]"
1,21,right,True,2023-07-28 11:53:07.871,2023-07-28 11:53:17.004,9.133000000000001,11,right,7000,14000,V,"[(1, 0), (1, 1), (2, 1), (2, 2), (1, 2), (1, 3), (0, 3), (0, 2), (4, 3)]","[(1, 0), (1, 1), (2, 1), (2, 2), (2, 3), (1, 3), (0, 3), (0, 2), (4, 3)]"
1,22,left,True,2023-07-28 11:53:34.047,2023-07-28 11:53:43.178,9.131,20,left,7000,14000,V,"[(0, 1), (0, 2), (1, 2), (1, 3), (2, 3), (2, 2), (3, 2), (4, 2), (0, 0)]","[(0, 1), (0, 2), (1, 2), (1, 3), (2, 3), (2, 2), (3, 2), (4, 2), (1, 0)]"
1,23,left,True,2023-07-28 11:54:00.201,2023-07-28 11:54:04.933,4.732,68,left,7000,14000,V,"[(0, 3), (0, 2), (1, 2), (1, 3), (2, 3), (2, 4), (1, 4), (0, 4), (4, 4)]","[(0, 3), (0, 2), (1, 2), (2, 2), (2, 3), (2, 4), (1, 4), (0, 4), (4, 4)]"
1,24,right,True,2023-07-28 11:54:21.953,2023-07-28 11:54:31.388,9.435,83,right,7000,14000,V,"[(3, 2), (4, 2), (4, 3), (3, 3), (3, 4), (2, 4), (2, 3), (2, 2), (0, 3)]","[(3, 2), (4, 2), (4, 3), (4, 4), (3, 4), (2, 4), (2, 3), (2, 2), (0, 3)]"
1,25,right,True,2023-07-28 11:54:48.416,2023-07-28 11:54:56.608,8.192,74,right,7000,14000,V,"[(0, 0), (0, 1), (1, 1), (1, 0), (2, 0), (2, 1), (3, 1), (4, 1), (4, 4)]","[(0, 0), (0, 1), (1, 1), (1, 0), (2, 0), (3, 0), (3, 1), (4, 1), (4, 4)]"
1,26,left,True,2023-07-28 11:55:13.643,2023-07-28 11:55:22.062,8.419,65,left,7000,14000,VH,"[(0, 0), (0, 1), (1, 1), (1, 0), (2, 0), (2, 1), (3, 1), (4, 1), (3, 3)]","[(0, 0), (0, 1), (1, 1), (1, 0), (2, 0), (3, 0), (3, 1), (4, 1), (3, 3)]"
1,27,right,True,2023-07-28 11:55:39.075,2023-07-28 11:55:47.912,8.837,52,right,7000,14000,VH,"[(4, 4), (3, 4), (3, 3), (4, 3), (4, 2), (3, 2), (3, 1), (4, 1), (0, 4)]","[(4, 4), (3, 4), (3, 3), (4, 3), (4, 2), (3, 2), (3, 1), (2, 1), (0, 4)]"
1,28,left,True,2023-07-28 11:56:04.937,2023-07-28 11:56:09.467,4.53,66,left,7000,14000,VH,"[(3, 0), (4, 0), (4, 1), (3, 1), (3, 2), (4, 2), (4, 3), (3, 3), (2, 2)]","[(3, 0), (4, 0), (4, 1), (3, 1), (3, 2), (4, 2), (4, 3), (4, 4), (2, 2)]"
1,29,right,True,2023-07-28 11:56:26.483,2023-07-28 11:56:32.068,5.585,9,right,7000,14000,VH,"[(3, 2), (4, 2), (4, 1), (3, 1), (3, 0), (2, 0), (2, 1), (2, 2), (3, 3)]","[(3, 2), (4, 2), (4, 1), (4, 0), (3, 0), (2, 0), (2, 1), (2, 2), (3, 3)]"
1,30,left,True,2023-07-28 11:56:49.093,2023-07-28 11:56:59.256,10.163,45,left,7000,14000,VH,"[(0, 3), (0, 4), (1, 4), (1, 3), (2, 3), (2, 4), (3, 4), (4, 4), (3, 0)]","[(0, 3), (0, 4), (1, 4), (1, 3), (2, 3), (3, 3), (3, 4), (4, 4), (3, 0)]"
1,31,right,True,2023-07-28 12:03:03.789,2023-07-28 12:03:10.094,6.305000000000001,15,right,7000,14000,V,"[(4, 3), (4, 2), (3, 2), (3, 3), (2, 3), (2, 4), (1, 4), (0, 4), (1, 0)]","[(4, 3), (4, 2), (3, 2), (2, 2), (2, 3), (2, 4), (1, 4), (0, 4), (1, 0)]"
1,32,left,False,2023-07-28 12:03:27.119,2023-07-28 12:03:33.463,6.344,70,right,7000,14000,V,"[(0, 0), (1, 0), (1, 1), (0, 1), (0, 2), (1, 2), (1, 3), (0, 3), (3, 1)]","[(0, 0), (1, 0), (1, 1), (0, 1), (0, 2), (1, 2), (1, 3), (0, 3), (3, 2)]"
1,33,left,True,2023-07-28 12:03:50.488,2023-07-28 12:03:55.641,5.1530000000000005,78,left,7000,14000,V,"[(3, 2), (4, 2), (4, 3), (3, 3), (3, 4), (2, 4), (2, 3), (1, 3), (1, 1)]","[(3, 2), (4, 2), (4, 3), (4, 4), (3, 4), (2, 4), (2, 3), (1, 3), (1, 1)]"
1,34,right,True,2023-07-28 12:04:12.661,2023-07-28 12:04:19.227,6.566000000000001,25,right,7000,14000,V,"[(0, 3), (0, 2), (1, 2), (1, 3), (2, 3), (2, 2), (3, 2), (3, 1), (0, 0)]","[(0, 3), (0, 2), (1, 2), (1, 3), (2, 3), (3, 3), (3, 2), (3, 1), (0, 0)]"
1,35,left,True,2023-07-28 12:04:36.240,2023-07-28 12:04:45.337,9.097000000000001,60,left,7000,14000,V,"[(3, 1), (3, 2), (4, 2), (4, 3), (3, 3), (3, 4), (2, 4), (2, 3), (0, 3)]","[(3, 1), (3, 2), (4, 2), (4, 3), (3, 3), (3, 4), (2, 4), (2, 3), (1, 3)]"
1,36,right,True,2023-07-28 12:05:02.358,2023-07-28 12:05:06.536,4.178,80,right,7000,14000,VH,"[(4, 4), (4, 3), (3, 3), (3, 4), (2, 4), (2, 3), (1, 3), (1, 2), (0, 1)]","[(4, 4), (4, 3), (3, 3), (3, 4), (2, 4), (2, 3), (1, 3), (1, 2), (0, 2)]"
1,37,left,True,2023-07-28 12:05:23.557,2023-07-28 12:05:27.963,4.406000000000001,63,left,7000,14000,VH,"[(0, 3), (1, 3), (1, 2), (0, 2), (0, 1), (1, 1), (1, 0), (0, 0), (2, 4)]","[(0, 3), (1, 3), (1, 2), (0, 2), (0, 1), (1, 1), (1, 0), (2, 0), (2, 4)]"
1,38,right,True,2023-07-28 12:05:44.977,2023-07-28 12:05:49.831,4.854,42,right,7000,14000,VH,"[(0, 3), (0, 4), (1, 4), (1, 3), (2, 3), (2, 2), (3, 2), (3, 3), (4, 2)]","[(0, 3), (0, 4), (1, 4), (2, 4), (2, 3), (2, 2), (3, 2), (3, 3), (4, 2)]"
1,39,left,False,2023-07-28 12:06:06.843,2023-07-28 12:06:10.672,3.829,12,right,7000,14000,VH,"[(2, 4), (1, 4), (1, 3), (0, 3), (0, 2), (1, 2), (1, 1), (1, 0), (4, 0)]","[(2, 4), (1, 4), (0, 4), (0, 3), (0, 2), (1, 2), (1, 1), (1, 0), (4, 0)]"
1,40,left,True,2023-07-28 12:06:27.697,2023-07-28 12:06:37.340,9.643,7,left,7000,14000,VH,"[(1, 4), (1, 3), (2, 3), (2, 2), (3, 2), (3, 1), (2, 1), (1, 1), (2, 0)]","[(1, 4), (1, 3), (1, 2), (2, 2), (3, 2), (3, 1), (2, 1), (1, 1), (2, 0)]"
1,41,right,True,2023-07-28 12:06:54.365,2023-07-28 12:07:03.728,9.363000000000001,22,right,7000,14000,H,"[(4, 0), (3, 0), (3, 1), (2, 1), (2, 0), (1, 0), (1, 1), (1, 2), (3, 4)]","[(4, 0), (3, 0), (3, 1), (2, 1), (2, 0), (1, 0), (1, 1), (0, 1), (3, 4)]"
1,42,right,False,2023-07-28 12:07:20.751,2023-07-28 12:07:29.896,9.145000000000001,5,left,7000,14000,H,"[(1, 1), (2, 1), (2, 2), (1, 2), (1, 3), (2, 3), (2, 4), (1, 4), (0, 2)]","[(1, 1), (2, 1), (2, 2), (1, 2), (1, 3), (2, 3), (2, 4), (3, 4), (0, 2)]"
1,43,left,True,2023-07-28 12:07:46.915,2023-07-28 12:07:55.980,9.065000000000001,8,left,7000,14000,H,"[(1, 4), (2, 4), (2, 3), (1, 3), (1, 2), (0, 2), (0, 3), (0, 4), (1, 0)]","[(1, 4), (2, 4), (2, 3), (2, 2), (1, 2), (0, 2), (0, 3), (0, 4), (1, 0)]"
1,44,right,False,2023-07-28 12:08:12.992,2023-07-28 12:08:22.360,9.368,16,left,7000,14000,H,"[(0, 0), (1, 0), (1, 1), (2, 1), (2, 0), (3, 0), (3, 1), (3, 2), (0, 3)]","[(0, 0), (1, 0), (1, 1), (2, 1), (2, 0), (3, 0), (3, 1), (4, 1), (0, 3)]"
1,45,right,True,2023-07-28 12:08:39.367,2023-07-28 12:08:48.591,9.224,1,right,7000,14000,H,"[(4, 2), (4, 3), (3, 3), (3, 2), (2, 2), (2, 1), (1, 1), (1, 0), (0, 1)]","[(4, 2), (4, 3), (3, 3), (2, 3), (2, 2), (2, 1), (1, 1), (1, 0), (0, 1)]"
1,46,right,False,2023-07-28 12:14:52.117,2023-07-28 12:15:01.476,9.359,30,left,7000,14000,H,"[(1, 4), (0, 4), (0, 3), (1, 3), (1, 2), (0, 2), (0, 1), (0, 0), (4, 0)]","[(1, 4), (0, 4), (0, 3), (1, 3), (1, 2), (0, 2), (0, 1), (0, 0), (3, 0)]"
1,47,right,False,2023-07-28 12:15:18.508,2023-07-28 12:15:29.626,11.118,10,left,7000,14000,H,"[(4, 2), (4, 3), (3, 3), (3, 2), (2, 2), (2, 3), (1, 3), (0, 3), (4, 0)]","[(4, 2), (4, 3), (3, 3), (3, 2), (2, 2), (2, 3), (1, 3), (0, 3), (4, 1)]"
1,48,right,True,2023-07-28 12:15:46.638,2023-07-28 12:15:57.605,10.967,90,right,7000,14000,H,"[(4, 0), (4, 1), (3, 1), (3, 2), (2, 2), (2, 3), (1, 3), (0, 3), (3, 3)]","[(4, 0), (4, 1), (3, 1), (3, 2), (2, 2), (2, 3), (1, 3), (0, 3), (3, 4)]"
1,49,left,True,2023-07-28 12:16:14.627,2023-07-28 12:16:23.538,8.911000000000001,53,left,7000,14000,H,"[(1, 4), (2, 4), (2, 3), (3, 3), (3, 2), (4, 2), (4, 1), (4, 0), (1, 0)]","[(1, 4), (2, 4), (3, 4), (3, 3), (3, 2), (4, 2), (4, 1), (4, 0), (1, 0)]"
1,50,left,False,2023-07-28 12:16:40.560,2023-07-28 12:16:48.936,8.376000000000001,39,right,7000,14000,H,"[(4, 0), (4, 1), (3, 1), (3, 0), (2, 0), (2, 1), (1, 1), (0, 1), (1, 3)]","[(4, 0), (4, 1), (3, 1), (3, 0), (2, 0), (1, 0), (1, 1), (0, 1), (1, 3)]"
1,51,right,True,2023-07-28 12:17:05.955,2023-07-28 12:17:12.815,6.86,54,right,7000,14000,V,"[(4, 3), (3, 3), (3, 2), (2, 2), (2, 1), (1, 1), (1, 2), (0, 2), (1, 3)]","[(4, 3), (3, 3), (2, 3), (2, 2), (2, 1), (1, 1), (1, 2), (0, 2), (1, 3)]"
1,52,left,False,2023-07-28 12:17:29.835,2023-07-28 12:17:39.036,9.201,71,right,7000,14000,V,"[(0, 1), (1, 1), (1, 2), (2, 2), (2, 1), (3, 1), (3, 0), (4, 0), (0, 4)]","[(0, 1), (1, 1), (1, 2), (2, 2), (3, 2), (3, 1), (3, 0), (4, 0), (0, 4)]"
1,53,left,True,2023-07-28 12:17:56.052,2023-07-28 12:17:58.885,2.833,76,left,7000,14000,V,"[(1, 3), (2, 3), (2, 2), (3, 2), (3, 1), (2, 1), (2, 0), (3, 0), (1, 4)]","[(1, 3), (2, 3), (3, 3), (3, 2), (3, 1), (2, 1), (2, 0), (3, 0), (1, 4)]"
1,54,left,True,2023-07-28 12:18:15.901,2023-07-28 12:18:19.706,3.805,34,left,7000,14000,V,"[(0, 2), (1, 2), (1, 3), (2, 3), (2, 4), (3, 4), (3, 3), (3, 2), (4, 0)]","[(0, 2), (1, 2), (2, 2), (2, 3), (2, 4), (3, 4), (3, 3), (3, 2), (4, 0)]"
1,55,left,True,2023-07-28 12:18:36.720,2023-07-28 12:18:40.959,4.239,84,left,7000,14000,V,"[(2, 0), (1, 0), (1, 1), (2, 1), (2, 2), (1, 2), (1, 3), (1, 4), (0, 3)]","[(2, 0), (1, 0), (1, 1), (2, 1), (2, 2), (2, 3), (1, 3), (1, 4), (0, 3)]"
1,56,left,True,2023-07-28 12:18:57.973,2023-07-28 12:19:04.647,6.674,41,left,7000,14000,VH,"[(1, 0), (1, 1), (2, 1), (2, 2), (3, 2), (3, 1), (4, 1), (4, 0), (2, 3)]","[(1, 0), (1, 1), (1, 2), (2, 2), (3, 2), (3, 1), (4, 1), (4, 0), (2, 3)]"
1,57,right,True,2023-07-28 12:19:21.669,2023-07-28 12:19:33.122,11.453000000000001,40,right,7000,14000,VH,"[(0, 0), (1, 0), (1, 1), (0, 1), (0, 2), (1, 2), (1, 3), (0, 3), (4, 3)]","[(0, 0), (1, 0), (1, 1), (0, 1), (0, 2), (1, 2), (1, 3), (0, 3), (3, 3)]"
1,58,right,True,2023-07-28 12:19:50.137,2023-07-28 12:19:58.373,8.236,4,right,7000,14000,VH,"[(4, 3), (4, 2), (3, 2), (3, 3), (2, 3), (2, 2), (1, 2), (1, 3), (4, 4)]","[(4, 3), (4, 2), (3, 2), (3, 3), (2, 3), (2, 2), (1, 2), (0, 2), (4, 4)]"
1,59,right,True,2023-07-28 12:20:15.378,2023-07-28 12:20:24.968,9.59,13,right,7000,14000,VH,"[(4, 1), (4, 0), (3, 0), (3, 1), (2, 1), (2, 2), (3, 2), (3, 3), (0, 3)]","[(4, 1), (4, 0), (3, 0), (2, 0), (2, 1), (2, 2), (3, 2), (3, 3), (0, 3)]"
1,60,left,True,2023-07-28 12:20:41.988,2023-07-28 12:20:47.638,5.65,2,left,7000,14000,VH,"[(4, 1), (4, 2), (3, 2), (3, 1), (2, 1), (2, 2), (1, 2), (1, 1), (4, 3)]","[(4, 1), (4, 2), (3, 2), (3, 1), (2, 1), (2, 2), (1, 2), (0, 2), (4, 3)]"
1,61,left,True,2023-07-28 12:24:18.942,2023-07-28 12:24:24.371,5.429,61,left,7000,14000,H,"[(2, 3), (3, 3), (3, 2), (2, 2), (2, 1), (3, 1), (3, 0), (2, 0), (1, 1)]","[(2, 3), (3, 3), (3, 2), (2, 2), (2, 1), (3, 1), (3, 0), (4, 0), (1, 1)]"
1,62,right,True,2023-07-28 12:24:41.393,2023-07-28 12:24:49.733,8.34,59,right,7000,14000,H,"[(0, 4), (0, 3), (1, 3), (1, 4), (2, 4), (2, 3), (3, 3), (3, 2), (2, 1)]","[(0, 4), (0, 3), (1, 3), (1, 4), (2, 4), (3, 4), (3, 3), (3, 2), (2, 1)]"
1,63,right,False,2023-07-28 12:25:06.750,2023-07-28 12:25:14.500,7.750000000000001,19,left,7000,14000,H,"[(4, 4), (4, 3), (3, 3), (3, 2), (2, 2), (2, 1), (3, 1), (3, 0), (0, 0)]","[(4, 4), (4, 3), (4, 2), (3, 2), (2, 2), (2, 1), (3, 1), (3, 0), (0, 0)]"
1,64,right,True,2023-07-28 12:25:31.519,2023-07-28 12:25:38.145,6.626,86,right,7000,14000,H,"[(2, 3), (2, 2), (3, 2), (3, 3), (4, 3), (4, 4), (3, 4), (2, 4), (2, 0)]","[(2, 3), (2, 2), (3, 2), (4, 2), (4, 3), (4, 4), (3, 4), (2, 4), (2, 0)]"
1,65,right,True,2023-07-28 12:25:55.165,2023-07-28 12:26:03.535,8.370000000000001,33,right,7000,14000,H,"[(4, 2), (4, 3), (3, 3), (3, 2), (2, 2), (2, 3), (1, 3), (1, 4), (0, 1)]","[(4, 2), (4, 3), (3, 3), (3, 2), (2, 2), (1, 2), (1, 3), (1, 4), (0, 1)]"
1,66,right,False,2023-07-28 12:26:20.554,2023-07-28 12:26:28.143,7.589,87,left,7000,14000,V,"[(4, 1), (4, 2), (3, 2), (3, 1), (2, 1), (2, 2), (1, 2), (1, 1), (2, 0)]","[(4, 1), (4, 2), (3, 2), (3, 1), (2, 1), (2, 2), (1, 2), (0, 2), (2, 0)]"
1,67,right,True,2023-07-28 12:26:45.166,2023-07-28 12:26:52.428,7.2620000000000005,23,right,7000,14000,V,"[(4, 2), (4, 1), (3, 1), (3, 2), (2, 2), (2, 1), (1, 1), (1, 0), (2, 0)]","[(4, 2), (4, 1), (3, 1), (3, 2), (2, 2), (1, 2), (1, 1), (1, 0), (2, 0)]"
1,68,right,True,2023-07-28 12:27:09.463,2023-07-28 12:27:19.471,10.008000000000001,77,right,7000,14000,V,"[(1, 1), (2, 1), (2, 2), (1, 2), (1, 3), (2, 3), (2, 4), (1, 4), (4, 3)]","[(1, 1), (2, 1), (2, 2), (1, 2), (1, 3), (2, 3), (2, 4), (3, 4), (4, 3)]"
1,69,left,True,2023-07-28 12:27:36.506,2023-07-28 12:27:42.094,5.588,67,left,7000,14000,V,"[(0, 2), (0, 3), (1, 3), (1, 2), (2, 2), (2, 1), (1, 1), (1, 0), (0, 4)]","[(0, 2), (0, 3), (1, 3), (2, 3), (2, 2), (2, 1), (1, 1), (1, 0), (0, 4)]"
1,70,right,True,2023-07-28 12:27:59.111,2023-07-28 12:28:02.624,3.5130000000000003,51,right,7000,14000,V,"[(2, 0), (1, 0), (1, 1), (2, 1), (2, 2), (3, 2), (3, 1), (4, 1), (0, 3)]","[(2, 0), (1, 0), (1, 1), (1, 2), (2, 2), (3, 2), (3, 1), (4, 1), (0, 3)]"
1,71,left,True,2023-07-28 12:28:19.657,2023-07-28 12:28:26.633,6.976000000000001,48,left,7000,14000,VH,"[(2, 3), (2, 4), (3, 4), (3, 3), (4, 3), (4, 2), (3, 2), (2, 2), (0, 1)]","[(2, 3), (2, 4), (3, 4), (4, 4), (4, 3), (4, 2), (3, 2), (2, 2), (0, 1)]"
1,72,right,True,2023-07-28 12:28:43.647,2023-07-28 12:28:49.426,5.779000000000001,35,right,7000,14000,VH,"[(4, 4), (4, 3), (3, 3), (3, 4), (2, 4), (2, 3), (1, 3), (0, 3), (1, 2)]","[(4, 4), (4, 3), (3, 3), (3, 4), (2, 4), (1, 4), (1, 3), (0, 3), (1, 2)]"
1,73,left,True,2023-07-28 12:29:06.450,2023-07-28 12:29:10.337,3.8870000000000005,17,left,7000,14000,VH,"[(1, 0), (2, 0), (2, 1), (1, 1), (1, 2), (2, 2), (2, 3), (3, 3), (0, 1)]","[(1, 0), (2, 0), (2, 1), (1, 1), (1, 2), (1, 3), (2, 3), (3, 3), (0, 1)]"
1,74,right,True,2023-07-28 12:29:27.353,2023-07-28 12:29:31.929,4.5760000000000005,36,right,7000,14000,VH,"[(2, 3), (2, 4), (1, 4), (1, 3), (0, 3), (0, 2), (1, 2), (2, 2), (2, 0)]","[(2, 3), (2, 4), (1, 4), (0, 4), (0, 3), (0, 2), (1, 2), (2, 2), (2, 0)]"
1,75,left,True,2023-07-28 12:29:48.951,2023-07-28 12:29:51.649,2.698,75,left,7000,14000,VH,"[(0, 4), (1, 4), (1, 3), (2, 3), (2, 4), (3, 4), (3, 3), (4, 3), (3, 1)]","[(0, 4), (1, 4), (1, 3), (2, 3), (2, 4), (3, 4), (3, 3), (3, 2), (3, 1)]"
1,76,right,False,2023-07-28 12:35:48.949,2023-07-28 12:35:57.615,8.666,56,left,7000,14000,H,"[(2, 0), (1, 0), (1, 1), (0, 1), (0, 2), (1, 2), (1, 3), (2, 3), (3, 4)]","[(2, 0), (1, 0), (0, 0), (0, 1), (0, 2), (1, 2), (1, 3), (2, 3), (3, 4)]"
1,77,right,True,2023-07-28 12:36:14.634,2023-07-28 12:36:24.966,10.332,18,right,7000,14000,H,"[(4, 1), (3, 1), (3, 2), (4, 2), (4, 3), (3, 3), (3, 4), (2, 4), (2, 2)]","[(4, 1), (3, 1), (3, 2), (4, 2), (4, 3), (4, 4), (3, 4), (2, 4), (2, 2)]"
1,78,right,False,2023-07-28 12:36:41.982,2023-07-28 12:36:50.322,8.34,44,left,7000,14000,H,"[(4, 3), (4, 4), (3, 4), (3, 3), (2, 3), (2, 2), (3, 2), (4, 2), (4, 0)]","[(4, 3), (4, 4), (3, 4), (2, 4), (2, 3), (2, 2), (3, 2), (4, 2), (4, 0)]"
1,79,right,True,2023-07-28 12:37:07.343,2023-07-28 12:37:19.232,11.889000000000001,55,right,7000,14000,H,"[(3, 4), (4, 4), (4, 3), (3, 3), (3, 2), (4, 2), (4, 1), (4, 0), (2, 2)]","[(3, 4), (4, 4), (4, 3), (3, 3), (3, 2), (3, 1), (4, 1), (4, 0), (2, 2)]"
1,80,left,True,2023-07-28 12:37:36.255,2023-07-28 12:37:44.039,7.784000000000001,37,left,7000,14000,H,"[(4, 0), (4, 1), (3, 1), (3, 2), (2, 2), (2, 3), (3, 3), (4, 3), (2, 1)]","[(4, 0), (4, 1), (4, 2), (3, 2), (2, 2), (2, 3), (3, 3), (4, 3), (2, 1)]"
1,81,left,True,2023-07-28 12:38:01.063,2023-07-28 12:38:05.349,4.2860000000000005,81,left,7000,14000,VH,"[(4, 0), (4, 1), (3, 1), (3, 2), (4, 2), (4, 3), (3, 3), (3, 4), (1, 3)]","[(4, 0), (4, 1), (3, 1), (3, 2), (4, 2), (4, 3), (3, 3), (2, 3), (1, 3)]"
1,82,right,True,2023-07-28 12:38:22.372,2023-07-28 12:38:29.229,6.857,72,right,7000,14000,VH,"[(4, 1), (4, 2), (3, 2), (3, 1), (2, 1), (2, 2), (1, 2), (0, 2), (0, 1)]","[(4, 1), (4, 2), (3, 2), (3, 1), (2, 1), (1, 1), (1, 2), (0, 2), (0, 1)]"
1,83,left,False,2023-07-28 12:38:46.260,2023-07-28 12:38:49.909,3.649,73,right,7000,14000,VH,"[(4, 2), (4, 1), (3, 1), (3, 2), (2, 2), (2, 1), (1, 1), (1, 2), (1, 4)]","[(4, 2), (4, 1), (3, 1), (3, 2), (2, 2), (2, 1), (1, 1), (0, 1), (1, 4)]"
1,84,right,True,2023-07-28 12:39:06.934,2023-07-28 12:39:15.752,8.818000000000001,26,right,7000,14000,VH,"[(1, 3), (1, 2), (2, 2), (2, 1), (3, 1), (3, 0), (2, 0), (1, 0), (4, 0)]","[(1, 3), (1, 2), (1, 1), (2, 1), (3, 1), (3, 0), (2, 0), (1, 0), (4, 0)]"
1,85,right,True,2023-07-28 12:39:32.778,2023-07-28 12:39:35.945,3.1670000000000003,46,right,7000,14000,VH,"[(4, 1), (4, 2), (3, 2), (3, 1), (2, 1), (2, 0), (1, 0), (1, 1), (0, 1)]","[(4, 1), (4, 2), (3, 2), (2, 2), (2, 1), (2, 0), (1, 0), (1, 1), (0, 1)]"
1,86,right,True,2023-07-28 12:39:52.979,2023-07-28 12:40:02.342,9.363000000000001,50,right,7000,14000,V,"[(4, 4), (4, 3), (3, 3), (3, 2), (2, 2), (2, 3), (1, 3), (1, 4), (0, 3)]","[(4, 4), (4, 3), (3, 3), (3, 2), (2, 2), (2, 3), (1, 3), (1, 4), (0, 4)]"
1,87,left,True,2023-07-28 12:40:19.366,2023-07-28 12:40:24.819,5.453,47,left,7000,14000,V,"[(4, 0), (4, 1), (3, 1), (3, 0), (2, 0), (2, 1), (1, 1), (1, 0), (4, 2)]","[(4, 0), (4, 1), (3, 1), (3, 0), (2, 0), (2, 1), (1, 1), (0, 1), (4, 2)]"
1,88,left,True,2023-07-28 12:40:41.843,2023-07-28 12:40:49.539,7.696000000000001,3,left,7000,14000,V,"[(3, 4), (3, 3), (2, 3), (2, 4), (1, 4), (1, 3), (0, 3), (0, 2), (3, 2)]","[(3, 4), (3, 3), (2, 3), (2, 4), (1, 4), (0, 4), (0, 3), (0, 2), (3, 2)]"
1,89,right,True,2023-07-28 12:41:06.565,2023-07-28 12:41:14.503,7.938000000000001,89,right,7000,14000,V,"[(0, 3), (0, 4), (1, 4), (1, 3), (2, 3), (2, 2), (3, 2), (3, 1), (2, 0)]","[(0, 3), (0, 4), (1, 4), (2, 4), (2, 3), (2, 2), (3, 2), (3, 1), (2, 0)]"
1,90,left,True,2023-07-28 12:41:31.529,2023-07-28 12:41:42.601,11.072000000000001,58,left,7000,14000,V,"[(0, 1), (0, 0), (1, 0), (1, 1), (2, 1), (2, 0), (3, 0), (4, 0), (2, 3)]","[(0, 1), (0, 0), (1, 0), (1, 1), (2, 1), (3, 1), (3, 0), (4, 0), (2, 3)]"
2,1,right,True,2023-08-03 07:59:58.194,2023-08-03 08:00:09.391,11.197000000000001,59,right,7000,14000,VH,"[(0, 4), (0, 3), (1, 3), (1, 4), (2, 4), (2, 3), (3, 3), (3, 2), (2, 1)]","[(0, 4), (0, 3), (1, 3), (1, 4), (2, 4), (3, 4), (3, 3), (3, 2), (2, 1)]"
2,2,right,False,2023-08-03 08:00:26.415,2023-08-03 08:00:41.934,15.519,82,left,7000,14000,VH,"[(1, 0), (1, 1), (2, 1), (2, 0), (3, 0), (3, 1), (4, 1), (4, 0), (0, 3)]","[(1, 0), (1, 1), (2, 1), (2, 0), (3, 0), (3, 1), (4, 1), (4, 2), (0, 3)]"
2,3,right,False,2023-08-03 08:00:58.968,2023-08-03 08:01:13.599,14.631,35,left,7000,14000,VH,"[(4, 4), (4, 3), (3, 3), (3, 4), (2, 4), (2, 3), (1, 3), (0, 3), (1, 2)]","[(4, 4), (4, 3), (3, 3), (3, 4), (2, 4), (1, 4), (1, 3), (0, 3), (1, 2)]"
2,4,right,True,2023-08-03 08:01:30.621,2023-08-03 08:01:37.685,7.064,8,right,7000,14000,VH,"[(1, 4), (2, 4), (2, 3), (1, 3), (1, 2), (0, 2), (0, 3), (0, 4), (1, 0)]","[(1, 4), (2, 4), (2, 3), (2, 2), (1, 2), (0, 2), (0, 3), (0, 4), (1, 0)]"
2,5,left,True,2023-08-03 08:01:54.721,2023-08-03 08:01:59.172,4.4510000000000005,48,left,7000,14000,VH,"[(2, 3), (2, 4), (3, 4), (3, 3), (4, 3), (4, 2), (3, 2), (2, 2), (0, 1)]","[(2, 3), (2, 4), (3, 4), (4, 4), (4, 3), (4, 2), (3, 2), (2, 2), (0, 1)]"
2,6,left,True,2023-08-03 08:02:16.197,2023-08-03 08:02:23.859,7.662000000000001,17,left,7000,14000,H,"[(1, 0), (2, 0), (2, 1), (1, 1), (1, 2), (2, 2), (2, 3), (3, 3), (0, 1)]","[(1, 0), (2, 0), (2, 1), (1, 1), (1, 2), (1, 3), (2, 3), (3, 3), (0, 1)]"
2,7,right,True,2023-08-03 08:02:40.884,2023-08-03 08:02:55.524,14.64,9,right,7000,14000,H,"[(3, 2), (4, 2), (4, 1), (3, 1), (3, 0), (2, 0), (2, 1), (2, 2), (3, 3)]","[(3, 2), (4, 2), (4, 1), (4, 0), (3, 0), (2, 0), (2, 1), (2, 2), (3, 3)]"
2,8,left,True,2023-08-03 08:03:12.547,2023-08-03 08:03:27.121,14.574000000000002,7,left,7000,14000,H,"[(1, 4), (1, 3), (2, 3), (2, 2), (3, 2), (3, 1), (2, 1), (1, 1), (2, 0)]","[(1, 4), (1, 3), (1, 2), (2, 2), (3, 2), (3, 1), (2, 1), (1, 1), (2, 0)]"
2,9,right,False,2023-08-03 08:03:44.157,2023-08-03 08:03:55.430,11.273000000000001,20,left,7000,14000,H,"[(0, 1), (0, 2), (1, 2), (1, 3), (2, 3), (2, 2), (3, 2), (4, 2), (0, 0)]","[(0, 1), (0, 2), (1, 2), (1, 3), (2, 3), (2, 2), (3, 2), (4, 2), (1, 0)]"
2,10,left,True,2023-08-03 08:04:12.467,2023-08-03 08:04:25.851,13.384,87,left,7000,14000,H,"[(4, 1), (4, 2), (3, 2), (3, 1), (2, 1), (2, 2), (1, 2), (1, 1), (2, 0)]","[(4, 1), (4, 2), (3, 2), (3, 1), (2, 1), (2, 2), (1, 2), (0, 2), (2, 0)]"
2,11,right,False,2023-08-03 08:04:42.886,2023-08-03 08:04:56.527,13.641,3,left,7000,14000,V,"[(3, 4), (3, 3), (2, 3), (2, 4), (1, 4), (1, 3), (0, 3), (0, 2), (3, 2)]","[(3, 4), (3, 3), (2, 3), (2, 4), (1, 4), (0, 4), (0, 3), (0, 2), (3, 2)]"
2,12,left,True,2023-08-03 08:05:13.550,2023-08-03 08:05:27.114,13.564,90,left,7000,14000,V,"[(4, 0), (4, 1), (3, 1), (3, 2), (2, 2), (2, 3), (1, 3), (0, 3), (3, 3)]","[(4, 0), (4, 1), (3, 1), (3, 2), (2, 2), (2, 3), (1, 3), (0, 3), (3, 4)]"
2,13,left,True,2023-08-03 08:05:44.149,2023-08-03 08:05:50.701,6.5520000000000005,10,left,7000,14000,V,"[(4, 2), (4, 3), (3, 3), (3, 2), (2, 2), (2, 3), (1, 3), (0, 3), (4, 0)]","[(4, 2), (4, 3), (3, 3), (3, 2), (2, 2), (2, 3), (1, 3), (0, 3), (4, 1)]"
2,14,right,False,2023-08-03 08:06:07.737,2023-08-03 08:06:18.994,11.257000000000001,78,left,7000,14000,V,"[(3, 2), (4, 2), (4, 3), (3, 3), (3, 4), (2, 4), (2, 3), (1, 3), (1, 1)]","[(3, 2), (4, 2), (4, 3), (4, 4), (3, 4), (2, 4), (2, 3), (1, 3), (1, 1)]"
2,15,left,True,2023-08-03 08:06:36.023,2023-08-03 08:06:46.419,10.396,26,left,7000,14000,V,"[(1, 3), (1, 2), (2, 2), (2, 1), (3, 1), (3, 0), (2, 0), (1, 0), (4, 0)]","[(1, 3), (1, 2), (1, 1), (2, 1), (3, 1), (3, 0), (2, 0), (1, 0), (4, 0)]"
2,16,left,True,2023-08-03 08:12:08.946,2023-08-03 08:12:22.153,13.207,74,left,7000,14000,H,"[(0, 0), (0, 1), (1, 1), (1, 0), (2, 0), (2, 1), (3, 1), (4, 1), (4, 4)]","[(0, 0), (0, 1), (1, 1), (1, 0), (2, 0), (3, 0), (3, 1), (4, 1), (4, 4)]"
2,17,left,True,2023-08-03 08:12:39.189,2023-08-03 08:12:54.483,15.294,38,left,7000,14000,H,"[(0, 0), (1, 0), (1, 1), (2, 1), (2, 2), (1, 2), (1, 3), (1, 4), (4, 2)]","[(0, 0), (1, 0), (2, 0), (2, 1), (2, 2), (1, 2), (1, 3), (1, 4), (4, 2)]"
2,18,left,True,2023-08-03 08:13:11.519,2023-08-03 08:13:24.004,12.485000000000001,80,left,7000,14000,H,"[(4, 4), (4, 3), (3, 3), (3, 4), (2, 4), (2, 3), (1, 3), (1, 2), (0, 1)]","[(4, 4), (4, 3), (3, 3), (3, 4), (2, 4), (2, 3), (1, 3), (1, 2), (0, 2)]"
2,19,right,True,2023-08-03 08:13:41.040,2023-08-03 08:13:51.980,10.940000000000001,4,right,7000,14000,H,"[(4, 3), (4, 2), (3, 2), (3, 3), (2, 3), (2, 2), (1, 2), (1, 3), (4, 4)]","[(4, 3), (4, 2), (3, 2), (3, 3), (2, 3), (2, 2), (1, 2), (0, 2), (4, 4)]"
2,20,left,False,2023-08-03 08:14:09.004,2023-08-03 08:14:23.645,14.641000000000002,37,right,7000,14000,H,"[(4, 0), (4, 1), (3, 1), (3, 2), (2, 2), (2, 3), (3, 3), (4, 3), (2, 1)]","[(4, 0), (4, 1), (4, 2), (3, 2), (2, 2), (2, 3), (3, 3), (4, 3), (2, 1)]"
2,21,right,False,2023-08-03 08:14:40.680,2023-08-03 08:14:53.386,12.706000000000001,89,left,7000,14000,VH,"[(0, 3), (0, 4), (1, 4), (1, 3), (2, 3), (2, 2), (3, 2), (3, 1), (2, 0)]","[(0, 3), (0, 4), (1, 4), (2, 4), (2, 3), (2, 2), (3, 2), (3, 1), (2, 0)]"
2,22,left,True,2023-08-03 08:15:10.412,2023-08-03 08:15:19.907,9.495000000000001,58,left,7000,14000,VH,"[(0, 1), (0, 0), (1, 0), (1, 1), (2, 1), (2, 0), (3, 0), (4, 0), (2, 3)]","[(0, 1), (0, 0), (1, 0), (1, 1), (2, 1), (3, 1), (3, 0), (4, 0), (2, 3)]"
2,23,left,False,2023-08-03 08:15:36.942,2023-08-03 08:15:49.674,12.732000000000001,40,right,7000,14000,VH,"[(0, 0), (1, 0), (1, 1), (0, 1), (0, 2), (1, 2), (1, 3), (0, 3), (4, 3)]","[(0, 0), (1, 0), (1, 1), (0, 1), (0, 2), (1, 2), (1, 3), (0, 3), (3, 3)]"
2,24,left,True,2023-08-03 08:16:06.706,2023-08-03 08:16:17.402,10.696000000000002,71,left,7000,14000,VH,"[(0, 1), (1, 1), (1, 2), (2, 2), (2, 1), (3, 1), (3, 0), (4, 0), (0, 4)]","[(0, 1), (1, 1), (1, 2), (2, 2), (3, 2), (3, 1), (3, 0), (4, 0), (0, 4)]"
2,25,right,False,2023-08-03 08:16:34.439,2023-08-03 08:16:49.513,15.074000000000002,30,left,7000,14000,VH,"[(1, 4), (0, 4), (0, 3), (1, 3), (1, 2), (0, 2), (0, 1), (0, 0), (4, 0)]","[(1, 4), (0, 4), (0, 3), (1, 3), (1, 2), (0, 2), (0, 1), (0, 0), (3, 0)]"
2,26,right,True,2023-08-03 08:17:06.536,2023-08-03 08:17:16.655,10.119,69,right,7000,14000,V,"[(3, 4), (2, 4), (2, 3), (1, 3), (1, 2), (2, 2), (2, 1), (3, 1), (0, 2)]","[(3, 4), (2, 4), (1, 4), (1, 3), (1, 2), (2, 2), (2, 1), (3, 1), (0, 2)]"
2,27,left,True,2023-08-03 08:17:33.689,2023-08-03 08:17:40.874,7.1850000000000005,67,left,7000,14000,V,"[(0, 2), (0, 3), (1, 3), (1, 2), (2, 2), (2, 1), (1, 1), (1, 0), (0, 4)]","[(0, 2), (0, 3), (1, 3), (2, 3), (2, 2), (2, 1), (1, 1), (1, 0), (0, 4)]"
2,28,left,True,2023-08-03 08:17:57.911,2023-08-03 08:18:14.283,16.372,53,left,7000,14000,V,"[(1, 4), (2, 4), (2, 3), (3, 3), (3, 2), (4, 2), (4, 1), (4, 0), (1, 0)]","[(1, 4), (2, 4), (3, 4), (3, 3), (3, 2), (4, 2), (4, 1), (4, 0), (1, 0)]"
2,29,right,True,2023-08-03 08:18:31.320,2023-08-03 08:18:39.705,8.385,6,right,7000,14000,V,"[(4, 4), (4, 3), (3, 3), (3, 2), (2, 2), (2, 3), (1, 3), (1, 2), (1, 1)]","[(4, 4), (4, 3), (4, 2), (3, 2), (2, 2), (2, 3), (1, 3), (1, 2), (1, 1)]"
2,30,right,False,2023-08-03 08:18:56.740,2023-08-03 08:19:04.459,7.719,72,left,7000,14000,V,"[(4, 1), (4, 2), (3, 2), (3, 1), (2, 1), (2, 2), (1, 2), (0, 2), (0, 1)]","[(4, 1), (4, 2), (3, 2), (3, 1), (2, 1), (1, 1), (1, 2), (0, 2), (0, 1)]"
2,31,left,True,2023-08-03 08:25:43.101,2023-08-03 08:25:51.300,8.199,27,left,7000,14000,VH,"[(0, 4), (0, 3), (1, 3), (1, 2), (2, 2), (2, 1), (1, 1), (1, 0), (4, 0)]","[(0, 4), (0, 3), (0, 2), (1, 2), (2, 2), (2, 1), (1, 1), (1, 0), (4, 0)]"
2,32,right,True,2023-08-03 08:26:08.333,2023-08-03 08:26:17.319,8.986,42,right,7000,14000,VH,"[(0, 3), (0, 4), (1, 4), (1, 3), (2, 3), (2, 2), (3, 2), (3, 3), (4, 2)]","[(0, 3), (0, 4), (1, 4), (2, 4), (2, 3), (2, 2), (3, 2), (3, 3), (4, 2)]"
2,33,right,True,2023-08-03 08:26:34.343,2023-08-03 08:26:44.127,9.784,13,right,7000,14000,VH,"[(4, 1), (4, 0), (3, 0), (3, 1), (2, 1), (2, 2), (3, 2), (3, 3), (0, 3)]","[(4, 1), (4, 0), (3, 0), (2, 0), (2, 1), (2, 2), (3, 2), (3, 3), (0, 3)]"
2,34,right,True,2023-08-03 08:27:01.163,2023-08-03 08:27:12.302,11.139000000000001,32,right,7000,14000,VH,"[(0, 4), (1, 4), (1, 3), (2, 3), (2, 4), (3, 4), (3, 3), (3, 2), (4, 2)]","[(0, 4), (1, 4), (1, 3), (2, 3), (2, 4), (3, 4), (3, 3), (4, 3), (4, 2)]"
2,35,right,True,2023-08-03 08:27:29.328,2023-08-03 08:27:37.013,7.6850000000000005,43,right,7000,14000,VH,"[(1, 3), (2, 3), (2, 2), (3, 2), (3, 3), (4, 3), (4, 4), (3, 4), (2, 4)]","[(1, 3), (2, 3), (2, 2), (3, 2), (4, 2), (4, 3), (4, 4), (3, 4), (2, 4)]"
2,36,right,False,2023-08-03 08:27:54.050,2023-08-03 08:28:03.157,9.107000000000001,60,left,7000,14000,V,"[(3, 1), (3, 2), (4, 2), (4, 3), (3, 3), (3, 4), (2, 4), (2, 3), (0, 3)]","[(3, 1), (3, 2), (4, 2), (4, 3), (3, 3), (3, 4), (2, 4), (2, 3), (1, 3)]"
2,37,left,True,2023-08-03 08:28:20.190,2023-08-03 08:28:30.077,9.887,41,left,7000,14000,V,"[(1, 0), (1, 1), (2, 1), (2, 2), (3, 2), (3, 1), (4, 1), (4, 0), (2, 3)]","[(1, 0), (1, 1), (1, 2), (2, 2), (3, 2), (3, 1), (4, 1), (4, 0), (2, 3)]"
2,38,left,False,2023-08-03 08:28:47.111,2023-08-03 08:28:59.930,12.819,56,right,7000,14000,V,"[(2, 0), (1, 0), (1, 1), (0, 1), (0, 2), (1, 2), (1, 3), (2, 3), (3, 4)]","[(2, 0), (1, 0), (0, 0), (0, 1), (0, 2), (1, 2), (1, 3), (2, 3), (3, 4)]"
2,39,right,False,2023-08-03 08:29:16.965,2023-08-03 08:29:31.650,14.685,55,left,7000,14000,V,"[(3, 4), (4, 4), (4, 3), (3, 3), (3, 2), (4, 2), (4, 1), (4, 0), (2, 2)]","[(3, 4), (4, 4), (4, 3), (3, 3), (3, 2), (3, 1), (4, 1), (4, 0), (2, 2)]"
2,40,right,True,2023-08-03 08:29:48.689,2023-08-03 08:29:54.937,6.248,52,right,7000,14000,V,"[(4, 4), (3, 4), (3, 3), (4, 3), (4, 2), (3, 2), (3, 1), (4, 1), (0, 4)]","[(4, 4), (3, 4), (3, 3), (4, 3), (4, 2), (3, 2), (3, 1), (2, 1), (0, 4)]"
2,41,left,False,2023-08-03 08:30:11.960,2023-08-03 08:30:19.401,7.441000000000001,45,right,7000,14000,H,"[(0, 3), (0, 4), (1, 4), (1, 3), (2, 3), (2, 4), (3, 4), (4, 4), (3, 0)]","[(0, 3), (0, 4), (1, 4), (1, 3), (2, 3), (3, 3), (3, 4), (4, 4), (3, 0)]"
2,42,right,True,2023-08-03 08:30:36.437,2023-08-03 08:30:52.699,16.262,22,right,7000,14000,H,"[(4, 0), (3, 0), (3, 1), (2, 1), (2, 0), (1, 0), (1, 1), (1, 2), (3, 4)]","[(4, 0), (3, 0), (3, 1), (2, 1), (2, 0), (1, 0), (1, 1), (0, 1), (3, 4)]"
2,43,left,True,2023-08-03 08:31:09.724,2023-08-03 08:31:24.630,14.906,61,left,7000,14000,H,"[(2, 3), (3, 3), (3, 2), (2, 2), (2, 1), (3, 1), (3, 0), (2, 0), (1, 1)]","[(2, 3), (3, 3), (3, 2), (2, 2), (2, 1), (3, 1), (3, 0), (4, 0), (1, 1)]"
2,44,left,False,2023-08-03 08:31:41.667,2023-08-03 08:31:56.729,15.062000000000001,57,right,7000,14000,H,"[(4, 1), (4, 2), (3, 2), (3, 3), (2, 3), (2, 2), (1, 2), (0, 2), (0, 3)]","[(4, 1), (4, 2), (4, 3), (3, 3), (2, 3), (2, 2), (1, 2), (0, 2), (0, 3)]"
2,45,right,True,2023-08-03 08:32:13.764,2023-08-03 08:32:31.114,17.35,63,right,7000,14000,H,"[(0, 3), (1, 3), (1, 2), (0, 2), (0, 1), (1, 1), (1, 0), (0, 0), (2, 4)]","[(0, 3), (1, 3), (1, 2), (0, 2), (0, 1), (1, 1), (1, 0), (2, 0), (2, 4)]"
2,46,right,True,2023-08-03 08:39:13.470,2023-08-03 08:39:26.254,12.784,54,right,7000,14000,H,"[(4, 3), (3, 3), (3, 2), (2, 2), (2, 1), (1, 1), (1, 2), (0, 2), (1, 3)]","[(4, 3), (3, 3), (2, 3), (2, 2), (2, 1), (1, 1), (1, 2), (0, 2), (1, 3)]"
2,47,left,False,2023-08-03 08:39:43.290,2023-08-03 08:39:57.851,14.561000000000002,73,right,7000,14000,H,"[(4, 2), (4, 1), (3, 1), (3, 2), (2, 2), (2, 1), (1, 1), (1, 2), (1, 4)]","[(4, 2), (4, 1), (3, 1), (3, 2), (2, 2), (2, 1), (1, 1), (0, 1), (1, 4)]"
2,48,left,True,2023-08-03 08:40:14.887,2023-08-03 08:40:20.541,5.654,83,left,7000,14000,H,"[(3, 2), (4, 2), (4, 3), (3, 3), (3, 4), (2, 4), (2, 3), (2, 2), (0, 3)]","[(3, 2), (4, 2), (4, 3), (4, 4), (3, 4), (2, 4), (2, 3), (2, 2), (0, 3)]"
2,49,left,True,2023-08-03 08:40:37.575,2023-08-03 08:40:51.769,14.194,44,left,7000,14000,H,"[(4, 3), (4, 4), (3, 4), (3, 3), (2, 3), (2, 2), (3, 2), (4, 2), (4, 0)]","[(4, 3), (4, 4), (3, 4), (2, 4), (2, 3), (2, 2), (3, 2), (4, 2), (4, 0)]"
2,50,right,True,2023-08-03 08:41:08.795,2023-08-03 08:41:19.801,11.006,2,right,7000,14000,H,"[(4, 1), (4, 2), (3, 2), (3, 1), (2, 1), (2, 2), (1, 2), (1, 1), (4, 3)]","[(4, 1), (4, 2), (3, 2), (3, 1), (2, 1), (2, 2), (1, 2), (0, 2), (4, 3)]"
2,51,right,True,2023-08-03 08:41:36.837,2023-08-03 08:41:43.278,6.441000000000001,84,right,7000,14000,V,"[(2, 0), (1, 0), (1, 1), (2, 1), (2, 2), (1, 2), (1, 3), (1, 4), (0, 3)]","[(2, 0), (1, 0), (1, 1), (2, 1), (2, 2), (2, 3), (1, 3), (1, 4), (0, 3)]"
2,52,right,True,2023-08-03 08:42:00.315,2023-08-03 08:42:07.199,6.884,75,right,7000,14000,V,"[(0, 4), (1, 4), (1, 3), (2, 3), (2, 4), (3, 4), (3, 3), (4, 3), (3, 1)]","[(0, 4), (1, 4), (1, 3), (2, 3), (2, 4), (3, 4), (3, 3), (3, 2), (3, 1)]"
2,53,right,True,2023-08-03 08:42:24.234,2023-08-03 08:42:28.264,4.03,21,right,7000,14000,V,"[(0, 4), (0, 3), (1, 3), (1, 2), (2, 2), (2, 1), (1, 1), (0, 1), (3, 1)]","[(0, 4), (0, 3), (0, 2), (1, 2), (2, 2), (2, 1), (1, 1), (0, 1), (3, 1)]"
2,54,right,True,2023-08-03 08:42:45.301,2023-08-03 08:42:48.642,3.341,47,right,7000,14000,V,"[(4, 0), (4, 1), (3, 1), (3, 0), (2, 0), (2, 1), (1, 1), (1, 0), (4, 2)]","[(4, 0), (4, 1), (3, 1), (3, 0), (2, 0), (2, 1), (1, 1), (0, 1), (4, 2)]"
2,55,right,True,2023-08-03 08:43:05.677,2023-08-03 08:43:10.339,4.662,33,right,7000,14000,V,"[(4, 2), (4, 3), (3, 3), (3, 2), (2, 2), (2, 3), (1, 3), (1, 4), (0, 1)]","[(4, 2), (4, 3), (3, 3), (3, 2), (2, 2), (1, 2), (1, 3), (1, 4), (0, 1)]"
2,56,right,True,2023-08-03 08:43:27.374,2023-08-03 08:43:36.828,9.454,5,right,7000,14000,VH,"[(1, 1), (2, 1), (2, 2), (1, 2), (1, 3), (2, 3), (2, 4), (1, 4), (0, 2)]","[(1, 1), (2, 1), (2, 2), (1, 2), (1, 3), (2, 3), (2, 4), (3, 4), (0, 2)]"
2,57,left,True,2023-08-03 08:43:53.861,2023-08-03 08:44:01.492,7.631,76,left,7000,14000,VH,"[(1, 3), (2, 3), (2, 2), (3, 2), (3, 1), (2, 1), (2, 0), (3, 0), (1, 4)]","[(1, 3), (2, 3), (3, 3), (3, 2), (3, 1), (2, 1), (2, 0), (3, 0), (1, 4)]"
2,58,right,True,2023-08-03 08:44:18.526,2023-08-03 08:44:23.891,5.365,70,right,7000,14000,VH,"[(0, 0), (1, 0), (1, 1), (0, 1), (0, 2), (1, 2), (1, 3), (0, 3), (3, 1)]","[(0, 0), (1, 0), (1, 1), (0, 1), (0, 2), (1, 2), (1, 3), (0, 3), (3, 2)]"
2,59,left,True,2023-08-03 08:44:40.926,2023-08-03 08:44:48.932,8.006,85,left,7000,14000,VH,"[(2, 1), (2, 0), (3, 0), (3, 1), (4, 1), (4, 2), (3, 2), (2, 2), (4, 3)]","[(2, 1), (2, 0), (3, 0), (4, 0), (4, 1), (4, 2), (3, 2), (2, 2), (4, 3)]"
2,60,right,True,2023-08-03 08:45:05.968,2023-08-03 08:45:18.375,12.407,31,right,7000,14000,VH,"[(3, 2), (2, 2), (2, 3), (3, 3), (3, 4), (4, 4), (4, 3), (4, 2), (0, 4)]","[(3, 2), (2, 2), (2, 3), (2, 4), (3, 4), (4, 4), (4, 3), (4, 2), (0, 4)]"
2,61,right,False,2023-08-03 08:50:18.191,2023-08-03 08:50:27.002,8.811,36,left,7000,14000,H,"[(2, 3), (2, 4), (1, 4), (1, 3), (0, 3), (0, 2), (1, 2), (2, 2), (2, 0)]","[(2, 3), (2, 4), (1, 4), (0, 4), (0, 3), (0, 2), (1, 2), (2, 2), (2, 0)]"
2,62,right,False,2023-08-03 08:50:44.035,2023-08-03 08:50:50.707,6.672000000000001,49,left,7000,14000,H,"[(0, 0), (0, 1), (1, 1), (1, 0), (2, 0), (2, 1), (3, 1), (3, 2), (1, 3)]","[(0, 0), (0, 1), (1, 1), (1, 0), (2, 0), (3, 0), (3, 1), (3, 2), (1, 3)]"
2,63,left,False,2023-08-03 08:51:07.744,2023-08-03 08:51:17.618,9.874,79,right,7000,14000,H,"[(1, 1), (1, 2), (2, 2), (2, 1), (3, 1), (3, 2), (4, 2), (4, 1), (0, 4)]","[(1, 1), (1, 2), (2, 2), (2, 1), (3, 1), (3, 2), (4, 2), (4, 3), (0, 4)]"
2,64,right,True,2023-08-03 08:51:34.653,2023-08-03 08:51:48.503,13.850000000000001,88,right,7000,14000,H,"[(3, 4), (4, 4), (4, 3), (3, 3), (3, 2), (2, 2), (2, 1), (3, 1), (0, 3)]","[(3, 4), (4, 4), (4, 3), (4, 2), (3, 2), (2, 2), (2, 1), (3, 1), (0, 3)]"
2,65,left,True,2023-08-03 08:52:05.528,2023-08-03 08:52:10.346,4.8180000000000005,12,left,7000,14000,H,"[(2, 4), (1, 4), (1, 3), (0, 3), (0, 2), (1, 2), (1, 1), (1, 0), (4, 0)]","[(2, 4), (1, 4), (0, 4), (0, 3), (0, 2), (1, 2), (1, 1), (1, 0), (4, 0)]"
2,66,left,True,2023-08-03 08:52:27.371,2023-08-03 08:52:37.291,9.92,34,left,7000,14000,V,"[(0, 2), (1, 2), (1, 3), (2, 3), (2, 4), (3, 4), (3, 3), (3, 2), (4, 0)]","[(0, 2), (1, 2), (2, 2), (2, 3), (2, 4), (3, 4), (3, 3), (3, 2), (4, 0)]"
2,67,right,True,2023-08-03 08:52:54.313,2023-08-03 08:53:03.610,9.297,11,right,7000,14000,V,"[(1, 0), (1, 1), (2, 1), (2, 2), (1, 2), (1, 3), (0, 3), (0, 2), (4, 3)]","[(1, 0), (1, 1), (2, 1), (2, 2), (2, 3), (1, 3), (0, 3), (0, 2), (4, 3)]"
2,68,right,False,2023-08-03 08:53:20.645,2023-08-03 08:53:28.888,8.243,16,left,7000,14000,V,"[(0, 0), (1, 0), (1, 1), (2, 1), (2, 0), (3, 0), (3, 1), (3, 2), (0, 3)]","[(0, 0), (1, 0), (1, 1), (2, 1), (2, 0), (3, 0), (3, 1), (4, 1), (0, 3)]"
2,69,right,True,2023-08-03 08:53:45.921,2023-08-03 08:53:51.784,5.863,46,right,7000,14000,V,"[(4, 1), (4, 2), (3, 2), (3, 1), (2, 1), (2, 0), (1, 0), (1, 1), (0, 1)]","[(4, 1), (4, 2), (3, 2), (2, 2), (2, 1), (2, 0), (1, 0), (1, 1), (0, 1)]"
2,70,left,True,2023-08-03 08:54:08.820,2023-08-03 08:54:18.750,9.930000000000001,24,left,7000,14000,V,"[(1, 4), (2, 4), (2, 3), (1, 3), (1, 2), (2, 2), (2, 1), (3, 1), (3, 0)]","[(1, 4), (2, 4), (2, 3), (1, 3), (1, 2), (1, 1), (2, 1), (3, 1), (3, 0)]"
2,71,left,True,2023-08-03 08:54:35.785,2023-08-03 08:54:41.147,5.362,86,left,7000,14000,VH,"[(2, 3), (2, 2), (3, 2), (3, 3), (4, 3), (4, 4), (3, 4), (2, 4), (2, 0)]","[(2, 3), (2, 2), (3, 2), (4, 2), (4, 3), (4, 4), (3, 4), (2, 4), (2, 0)]"
2,72,right,True,2023-08-03 08:54:58.185,2023-08-03 08:55:05.889,7.704000000000001,14,right,7000,14000,VH,"[(0, 3), (0, 4), (1, 4), (1, 3), (2, 3), (2, 2), (3, 2), (3, 3), (0, 0)]","[(0, 3), (0, 4), (1, 4), (2, 4), (2, 3), (2, 2), (3, 2), (3, 3), (0, 0)]"
2,73,left,True,2023-08-03 08:55:22.915,2023-08-03 08:55:35.000,12.085,65,left,7000,14000,VH,"[(0, 0), (0, 1), (1, 1), (1, 0), (2, 0), (2, 1), (3, 1), (4, 1), (3, 3)]","[(0, 0), (0, 1), (1, 1), (1, 0), (2, 0), (3, 0), (3, 1), (4, 1), (3, 3)]"
2,74,left,True,2023-08-03 08:55:52.024,2023-08-03 08:56:04.997,12.973,64,left,7000,14000,VH,"[(4, 0), (4, 1), (3, 1), (3, 2), (4, 2), (4, 3), (3, 3), (3, 4), (0, 2)]","[(4, 0), (4, 1), (3, 1), (3, 2), (4, 2), (4, 3), (3, 3), (2, 3), (0, 2)]"
2,75,right,False,2023-08-03 08:56:22.023,2023-08-03 08:56:32.518,10.495000000000001,18,left,7000,14000,VH,"[(4, 1), (3, 1), (3, 2), (4, 2), (4, 3), (3, 3), (3, 4), (2, 4), (2, 2)]","[(4, 1), (3, 1), (3, 2), (4, 2), (4, 3), (4, 4), (3, 4), (2, 4), (2, 2)]"
2,76,right,True,2023-08-03 09:00:22.974,2023-08-03 09:00:26.960,3.986,66,right,7000,14000,V,"[(3, 0), (4, 0), (4, 1), (3, 1), (3, 2), (4, 2), (4, 3), (3, 3), (2, 2)]","[(3, 0), (4, 0), (4, 1), (3, 1), (3, 2), (4, 2), (4, 3), (4, 4), (2, 2)]"
2,77,right,True,2023-08-03 09:00:43.994,2023-08-03 09:00:49.969,5.9750000000000005,23,right,7000,14000,V,"[(4, 2), (4, 1), (3, 1), (3, 2), (2, 2), (2, 1), (1, 1), (1, 0), (2, 0)]","[(4, 2), (4, 1), (3, 1), (3, 2), (2, 2), (1, 2), (1, 1), (1, 0), (2, 0)]"
2,78,right,True,2023-08-03 09:01:07.003,2023-08-03 09:01:16.721,9.718,29,right,7000,14000,V,"[(2, 2), (1, 2), (1, 1), (2, 1), (2, 0), (3, 0), (3, 1), (3, 2), (4, 4)]","[(2, 2), (1, 2), (1, 1), (1, 0), (2, 0), (3, 0), (3, 1), (3, 2), (4, 4)]"
2,79,right,True,2023-08-03 09:01:33.758,2023-08-03 09:01:38.964,5.206,51,right,7000,14000,V,"[(2, 0), (1, 0), (1, 1), (2, 1), (2, 2), (3, 2), (3, 1), (4, 1), (0, 3)]","[(2, 0), (1, 0), (1, 1), (1, 2), (2, 2), (3, 2), (3, 1), (4, 1), (0, 3)]"
2,80,left,True,2023-08-03 09:01:56.000,2023-08-03 09:02:02.418,6.418,81,left,7000,14000,V,"[(4, 0), (4, 1), (3, 1), (3, 2), (4, 2), (4, 3), (3, 3), (3, 4), (1, 3)]","[(4, 0), (4, 1), (3, 1), (3, 2), (4, 2), (4, 3), (3, 3), (2, 3), (1, 3)]"
2,81,right,True,2023-08-03 09:02:19.454,2023-08-03 09:02:30.983,11.529,15,right,7000,14000,VH,"[(4, 3), (4, 2), (3, 2), (3, 3), (2, 3), (2, 4), (1, 4), (0, 4), (1, 0)]","[(4, 3), (4, 2), (3, 2), (2, 2), (2, 3), (2, 4), (1, 4), (0, 4), (1, 0)]"
2,82,right,True,2023-08-03 09:02:48.018,2023-08-03 09:02:56.715,8.697000000000001,62,right,7000,14000,VH,"[(1, 0), (2, 0), (2, 1), (3, 1), (3, 2), (2, 2), (2, 3), (2, 4), (0, 1)]","[(1, 0), (2, 0), (3, 0), (3, 1), (3, 2), (2, 2), (2, 3), (2, 4), (0, 1)]"
2,83,left,True,2023-08-03 09:03:13.751,2023-08-03 09:03:24.959,11.208,28,left,7000,14000,VH,"[(0, 4), (0, 3), (1, 3), (1, 2), (0, 2), (0, 1), (1, 1), (1, 0), (3, 1)]","[(0, 4), (0, 3), (1, 3), (1, 2), (0, 2), (0, 1), (1, 1), (2, 1), (3, 1)]"
2,84,right,True,2023-08-03 09:03:41.992,2023-08-03 09:03:49.189,7.197,68,right,7000,14000,VH,"[(0, 3), (0, 2), (1, 2), (1, 3), (2, 3), (2, 4), (1, 4), (0, 4), (4, 4)]","[(0, 3), (0, 2), (1, 2), (2, 2), (2, 3), (2, 4), (1, 4), (0, 4), (4, 4)]"
2,85,right,True,2023-08-03 09:04:06.213,2023-08-03 09:04:12.820,6.607,77,right,7000,14000,VH,"[(1, 1), (2, 1), (2, 2), (1, 2), (1, 3), (2, 3), (2, 4), (1, 4), (4, 3)]","[(1, 1), (2, 1), (2, 2), (1, 2), (1, 3), (2, 3), (2, 4), (3, 4), (4, 3)]"
2,86,left,True,2023-08-03 09:04:29.856,2023-08-03 09:04:40.608,10.752,19,left,7000,14000,H,"[(4, 4), (4, 3), (3, 3), (3, 2), (2, 2), (2, 1), (3, 1), (3, 0), (0, 0)]","[(4, 4), (4, 3), (4, 2), (3, 2), (2, 2), (2, 1), (3, 1), (3, 0), (0, 0)]"
2,87,right,False,2023-08-03 09:04:57.632,2023-08-03 09:05:13.049,15.417000000000002,25,left,7000,14000,H,"[(0, 3), (0, 2), (1, 2), (1, 3), (2, 3), (2, 2), (3, 2), (3, 1), (0, 0)]","[(0, 3), (0, 2), (1, 2), (1, 3), (2, 3), (3, 3), (3, 2), (3, 1), (0, 0)]"
2,88,left,False,2023-08-03 09:05:30.074,2023-08-03 09:05:45.692,15.618,50,right,7000,14000,H,"[(4, 4), (4, 3), (3, 3), (3, 2), (2, 2), (2, 3), (1, 3), (1, 4), (0, 3)]","[(4, 4), (4, 3), (3, 3), (3, 2), (2, 2), (2, 3), (1, 3), (1, 4), (0, 4)]"
2,89,left,False,2023-08-03 09:06:02.729,2023-08-03 09:06:14.224,11.495000000000001,39,right,7000,14000,H,"[(4, 0), (4, 1), (3, 1), (3, 0), (2, 0), (2, 1), (1, 1), (0, 1), (1, 3)]","[(4, 0), (4, 1), (3, 1), (3, 0), (2, 0), (1, 0), (1, 1), (0, 1), (1, 3)]"
2,90,right,True,2023-08-03 09:06:31.260,2023-08-03 09:06:38.132,6.872000000000001,1,right,7000,14000,H,"[(4, 2), (4, 3), (3, 3), (3, 2), (2, 2), (2, 1), (1, 1), (1, 0), (0, 1)]","[(4, 2), (4, 3), (3, 3), (2, 3), (2, 2), (2, 1), (1, 1), (1, 0), (0, 1)]"
4,1,left,True,2023-08-03 13:28:26.173,2023-08-03 13:28:32.813,6.640000000000001,59,left,7000,14000,V,"[(0, 4), (0, 3), (1, 3), (1, 4), (2, 4), (2, 3), (3, 3), (3, 2), (2, 1)]","[(0, 4), (0, 3), (1, 3), (1, 4), (2, 4), (3, 4), (3, 3), (3, 2), (2, 1)]"
4,2,left,False,2023-08-03 13:28:49.849,2023-08-03 13:28:54.834,4.985,82,right,7000,14000,V,"[(1, 0), (1, 1), (2, 1), (2, 0), (3, 0), (3, 1), (4, 1), (4, 0), (0, 3)]","[(1, 0), (1, 1), (2, 1), (2, 0), (3, 0), (3, 1), (4, 1), (4, 2), (0, 3)]"
4,3,right,True,2023-08-03 13:29:11.858,2023-08-03 13:29:17.910,6.0520000000000005,35,right,7000,14000,V,"[(4, 4), (4, 3), (3, 3), (3, 4), (2, 4), (2, 3), (1, 3), (0, 3), (1, 2)]","[(4, 4), (4, 3), (3, 3), (3, 4), (2, 4), (1, 4), (1, 3), (0, 3), (1, 2)]"
4,4,left,True,2023-08-03 13:29:34.937,2023-08-03 13:29:42.797,7.86,8,left,7000,14000,V,"[(1, 4), (2, 4), (2, 3), (1, 3), (1, 2), (0, 2), (0, 3), (0, 4), (1, 0)]","[(1, 4), (2, 4), (2, 3), (2, 2), (1, 2), (0, 2), (0, 3), (0, 4), (1, 0)]"
4,5,right,True,2023-08-03 13:29:59.833,2023-08-03 13:30:07.183,7.3500000000000005,48,right,7000,14000,V,"[(2, 3), (2, 4), (3, 4), (3, 3), (4, 3), (4, 2), (3, 2), (2, 2), (0, 1)]","[(2, 3), (2, 4), (3, 4), (4, 4), (4, 3), (4, 2), (3, 2), (2, 2), (0, 1)]"
4,6,left,True,2023-08-03 13:30:24.220,2023-08-03 13:30:33.401,9.181000000000001,80,left,7000,14000,H,"[(4, 4), (4, 3), (3, 3), (3, 4), (2, 4), (2, 3), (1, 3), (1, 2), (0, 1)]","[(4, 4), (4, 3), (3, 3), (3, 4), (2, 4), (2, 3), (1, 3), (1, 2), (0, 2)]"
4,7,left,True,2023-08-03 13:30:50.418,2023-08-03 13:31:05.393,14.975000000000001,20,left,7000,14000,H,"[(0, 1), (0, 2), (1, 2), (1, 3), (2, 3), (2, 2), (3, 2), (4, 2), (0, 0)]","[(0, 1), (0, 2), (1, 2), (1, 3), (2, 3), (2, 2), (3, 2), (4, 2), (1, 0)]"
4,8,right,True,2023-08-03 13:31:22.426,2023-08-03 13:31:31.289,8.863000000000001,17,right,7000,14000,H,"[(1, 0), (2, 0), (2, 1), (1, 1), (1, 2), (2, 2), (2, 3), (3, 3), (0, 1)]","[(1, 0), (2, 0), (2, 1), (1, 1), (1, 2), (1, 3), (2, 3), (3, 3), (0, 1)]"
4,9,right,True,2023-08-03 13:31:48.326,2023-08-03 13:32:03.288,14.962000000000002,9,right,7000,14000,H,"[(3, 2), (4, 2), (4, 1), (3, 1), (3, 0), (2, 0), (2, 1), (2, 2), (3, 3)]","[(3, 2), (4, 2), (4, 1), (4, 0), (3, 0), (2, 0), (2, 1), (2, 2), (3, 3)]"
4,10,left,True,2023-08-03 13:32:20.322,2023-08-03 13:32:36.273,15.951,7,left,7000,14000,H,"[(1, 4), (1, 3), (2, 3), (2, 2), (3, 2), (3, 1), (2, 1), (1, 1), (2, 0)]","[(1, 4), (1, 3), (1, 2), (2, 2), (3, 2), (3, 1), (2, 1), (1, 1), (2, 0)]"
4,11,right,True,2023-08-03 13:32:53.309,2023-08-03 13:32:58.272,4.963,87,right,7000,14000,VH,"[(4, 1), (4, 2), (3, 2), (3, 1), (2, 1), (2, 2), (1, 2), (1, 1), (2, 0)]","[(4, 1), (4, 2), (3, 2), (3, 1), (2, 1), (2, 2), (1, 2), (0, 2), (2, 0)]"
4,12,left,True,2023-08-03 13:33:15.297,2023-08-03 13:33:18.747,3.45,3,left,7000,14000,VH,"[(3, 4), (3, 3), (2, 3), (2, 4), (1, 4), (1, 3), (0, 3), (0, 2), (3, 2)]","[(3, 4), (3, 3), (2, 3), (2, 4), (1, 4), (0, 4), (0, 3), (0, 2), (3, 2)]"
4,13,right,True,2023-08-03 13:33:35.773,2023-08-03 13:33:37.748,1.975,78,right,7000,14000,VH,"[(3, 2), (4, 2), (4, 3), (3, 3), (3, 4), (2, 4), (2, 3), (1, 3), (1, 1)]","[(3, 2), (4, 2), (4, 3), (4, 4), (3, 4), (2, 4), (2, 3), (1, 3), (1, 1)]"
4,14,left,True,2023-08-03 13:33:54.783,2023-08-03 13:34:02.889,8.106,26,left,7000,14000,VH,"[(1, 3), (1, 2), (2, 2), (2, 1), (3, 1), (3, 0), (2, 0), (1, 0), (4, 0)]","[(1, 3), (1, 2), (1, 1), (2, 1), (3, 1), (3, 0), (2, 0), (1, 0), (4, 0)]"
4,15,left,True,2023-08-03 13:34:19.926,2023-08-03 13:34:23.678,3.7520000000000002,74,left,7000,14000,VH,"[(0, 0), (0, 1), (1, 1), (1, 0), (2, 0), (2, 1), (3, 1), (4, 1), (4, 4)]","[(0, 0), (0, 1), (1, 1), (1, 0), (2, 0), (3, 0), (3, 1), (4, 1), (4, 4)]"
4,16,right,False,2023-08-03 13:38:04.613,2023-08-03 13:38:06.908,2.295,38,left,7000,14000,V,"[(0, 0), (1, 0), (1, 1), (2, 1), (2, 2), (1, 2), (1, 3), (1, 4), (4, 2)]","[(0, 0), (1, 0), (2, 0), (2, 1), (2, 2), (1, 2), (1, 3), (1, 4), (4, 2)]"
4,17,left,True,2023-08-03 13:38:23.933,2023-08-03 13:38:28.873,4.94,4,left,7000,14000,V,"[(4, 3), (4, 2), (3, 2), (3, 3), (2, 3), (2, 2), (1, 2), (1, 3), (4, 4)]","[(4, 3), (4, 2), (3, 2), (3, 3), (2, 3), (2, 2), (1, 2), (0, 2), (4, 4)]"
4,18,left,True,2023-08-03 13:38:45.887,2023-08-03 13:38:57.581,11.694,37,left,7000,14000,V,"[(4, 0), (4, 1), (3, 1), (3, 2), (2, 2), (2, 3), (3, 3), (4, 3), (2, 1)]","[(4, 0), (4, 1), (4, 2), (3, 2), (2, 2), (2, 3), (3, 3), (4, 3), (2, 1)]"
4,19,left,True,2023-08-03 13:39:14.596,2023-08-03 13:39:20.690,6.094,89,left,7000,14000,V,"[(0, 3), (0, 4), (1, 4), (1, 3), (2, 3), (2, 2), (3, 2), (3, 1), (2, 0)]","[(0, 3), (0, 4), (1, 4), (2, 4), (2, 3), (2, 2), (3, 2), (3, 1), (2, 0)]"
4,20,left,True,2023-08-03 13:39:37.726,2023-08-03 13:39:42.688,4.962000000000001,58,left,7000,14000,V,"[(0, 1), (0, 0), (1, 0), (1, 1), (2, 1), (2, 0), (3, 0), (4, 0), (2, 3)]","[(0, 1), (0, 0), (1, 0), (1, 1), (2, 1), (3, 1), (3, 0), (4, 0), (2, 3)]"
4,21,right,True,2023-08-03 13:39:59.725,2023-08-03 13:40:06.043,6.3180000000000005,71,right,7000,14000,VH,"[(0, 1), (1, 1), (1, 2), (2, 2), (2, 1), (3, 1), (3, 0), (4, 0), (0, 4)]","[(0, 1), (1, 1), (1, 2), (2, 2), (3, 2), (3, 1), (3, 0), (4, 0), (0, 4)]"
4,22,right,True,2023-08-03 13:40:23.080,2023-08-03 13:40:38.296,15.216000000000001,30,right,7000,14000,VH,"[(1, 4), (0, 4), (0, 3), (1, 3), (1, 2), (0, 2), (0, 1), (0, 0), (4, 0)]","[(1, 4), (0, 4), (0, 3), (1, 3), (1, 2), (0, 2), (0, 1), (0, 0), (3, 0)]"
4,23,left,False,2023-08-03 13:40:55.322,2023-08-03 13:41:12.405,17.083000000000002,40,right,7000,14000,VH,"[(0, 0), (1, 0), (1, 1), (0, 1), (0, 2), (1, 2), (1, 3), (0, 3), (4, 3)]","[(0, 0), (1, 0), (1, 1), (0, 1), (0, 2), (1, 2), (1, 3), (0, 3), (3, 3)]"
4,24,right,True,2023-08-03 13:41:29.442,2023-08-03 13:41:40.181,10.739,69,right,7000,14000,VH,"[(3, 4), (2, 4), (2, 3), (1, 3), (1, 2), (2, 2), (2, 1), (3, 1), (0, 2)]","[(3, 4), (2, 4), (1, 4), (1, 3), (1, 2), (2, 2), (2, 1), (3, 1), (0, 2)]"
4,25,left,True,2023-08-03 13:41:57.207,2023-08-03 13:42:04.901,7.694000000000001,67,left,7000,14000,VH,"[(0, 2), (0, 3), (1, 3), (1, 2), (2, 2), (2, 1), (1, 1), (1, 0), (0, 4)]","[(0, 2), (0, 3), (1, 3), (2, 3), (2, 2), (2, 1), (1, 1), (1, 0), (0, 4)]"
4,26,left,True,2023-08-03 13:42:21.939,2023-08-03 13:42:33.789,11.850000000000001,53,left,7000,14000,H,"[(1, 4), (2, 4), (2, 3), (3, 3), (3, 2), (4, 2), (4, 1), (4, 0), (1, 0)]","[(1, 4), (2, 4), (3, 4), (3, 3), (3, 2), (4, 2), (4, 1), (4, 0), (1, 0)]"
4,27,left,True,2023-08-03 13:42:50.825,2023-08-03 13:43:05.565,14.74,6,left,7000,14000,H,"[(4, 4), (4, 3), (3, 3), (3, 2), (2, 2), (2, 3), (1, 3), (1, 2), (1, 1)]","[(4, 4), (4, 3), (4, 2), (3, 2), (2, 2), (2, 3), (1, 3), (1, 2), (1, 1)]"
4,28,right,False,2023-08-03 13:43:22.601,2023-08-03 13:43:31.462,8.861,72,left,7000,14000,H,"[(4, 1), (4, 2), (3, 2), (3, 1), (2, 1), (2, 2), (1, 2), (0, 2), (0, 1)]","[(4, 1), (4, 2), (3, 2), (3, 1), (2, 1), (1, 1), (1, 2), (0, 2), (0, 1)]"
4,29,left,True,2023-08-03 13:43:48.490,2023-08-03 13:44:04.815,16.325,27,left,7000,14000,H,"[(0, 4), (0, 3), (1, 3), (1, 2), (2, 2), (2, 1), (1, 1), (1, 0), (4, 0)]","[(0, 4), (0, 3), (0, 2), (1, 2), (2, 2), (2, 1), (1, 1), (1, 0), (4, 0)]"
4,30,left,True,2023-08-03 13:44:21.853,2023-08-03 13:44:32.313,10.46,42,left,7000,14000,H,"[(0, 3), (0, 4), (1, 4), (1, 3), (2, 3), (2, 2), (3, 2), (3, 3), (4, 2)]","[(0, 3), (0, 4), (1, 4), (2, 4), (2, 3), (2, 2), (3, 2), (3, 3), (4, 2)]"
4,31,left,True,2023-08-03 13:47:31.717,2023-08-03 13:47:46.814,15.097000000000001,13,left,7000,14000,VH,"[(4, 1), (4, 0), (3, 0), (3, 1), (2, 1), (2, 2), (3, 2), (3, 3), (0, 3)]","[(4, 1), (4, 0), (3, 0), (2, 0), (2, 1), (2, 2), (3, 2), (3, 3), (0, 3)]"
4,32,right,True,2023-08-03 13:48:03.849,2023-08-03 13:48:11.324,7.4750000000000005,32,right,7000,14000,VH,"[(0, 4), (1, 4), (1, 3), (2, 3), (2, 4), (3, 4), (3, 3), (3, 2), (4, 2)]","[(0, 4), (1, 4), (1, 3), (2, 3), (2, 4), (3, 4), (3, 3), (4, 3), (4, 2)]"
4,33,left,True,2023-08-03 13:48:28.358,2023-08-03 13:48:39.010,10.652000000000001,43,left,7000,14000,VH,"[(1, 3), (2, 3), (2, 2), (3, 2), (3, 3), (4, 3), (4, 4), (3, 4), (2, 4)]","[(1, 3), (2, 3), (2, 2), (3, 2), (4, 2), (4, 3), (4, 4), (3, 4), (2, 4)]"
4,34,left,True,2023-08-03 13:48:56.034,2023-08-03 13:49:04.063,8.029,41,left,7000,14000,VH,"[(1, 0), (1, 1), (2, 1), (2, 2), (3, 2), (3, 1), (4, 1), (4, 0), (2, 3)]","[(1, 0), (1, 1), (1, 2), (2, 2), (3, 2), (3, 1), (4, 1), (4, 0), (2, 3)]"
4,35,right,True,2023-08-03 13:49:21.099,2023-08-03 13:49:25.463,4.364,56,right,7000,14000,VH,"[(2, 0), (1, 0), (1, 1), (0, 1), (0, 2), (1, 2), (1, 3), (2, 3), (3, 4)]","[(2, 0), (1, 0), (0, 0), (0, 1), (0, 2), (1, 2), (1, 3), (2, 3), (3, 4)]"
4,36,left,False,2023-08-03 13:49:42.487,2023-08-03 13:49:57.370,14.883000000000001,55,right,7000,14000,H,"[(3, 4), (4, 4), (4, 3), (3, 3), (3, 2), (4, 2), (4, 1), (4, 0), (2, 2)]","[(3, 4), (4, 4), (4, 3), (3, 3), (3, 2), (3, 1), (4, 1), (4, 0), (2, 2)]"
4,37,left,True,2023-08-03 13:50:14.408,2023-08-03 13:50:24.505,10.097000000000001,52,left,7000,14000,H,"[(4, 4), (3, 4), (3, 3), (4, 3), (4, 2), (3, 2), (3, 1), (4, 1), (0, 4)]","[(4, 4), (3, 4), (3, 3), (4, 3), (4, 2), (3, 2), (3, 1), (2, 1), (0, 4)]"
4,38,right,True,2023-08-03 13:50:41.538,2023-08-03 13:50:57.434,15.896,45,right,7000,14000,H,"[(0, 3), (0, 4), (1, 4), (1, 3), (2, 3), (2, 4), (3, 4), (4, 4), (3, 0)]","[(0, 3), (0, 4), (1, 4), (1, 3), (2, 3), (3, 3), (3, 4), (4, 4), (3, 0)]"
4,39,left,False,2023-08-03 13:51:14.469,2023-08-03 13:51:25.342,10.873000000000001,22,right,7000,14000,H,"[(4, 0), (3, 0), (3, 1), (2, 1), (2, 0), (1, 0), (1, 1), (1, 2), (3, 4)]","[(4, 0), (3, 0), (3, 1), (2, 1), (2, 0), (1, 0), (1, 1), (0, 1), (3, 4)]"
4,40,left,False,2023-08-03 13:51:42.376,2023-08-03 13:51:54.929,12.553,61,right,7000,14000,H,"[(2, 3), (3, 3), (3, 2), (2, 2), (2, 1), (3, 1), (3, 0), (2, 0), (1, 1)]","[(2, 3), (3, 3), (3, 2), (2, 2), (2, 1), (3, 1), (3, 0), (4, 0), (1, 1)]"
4,41,right,True,2023-08-03 13:52:11.966,2023-08-03 13:52:17.505,5.539000000000001,57,right,7000,14000,V,"[(4, 1), (4, 2), (3, 2), (3, 3), (2, 3), (2, 2), (1, 2), (0, 2), (0, 3)]","[(4, 1), (4, 2), (4, 3), (3, 3), (2, 3), (2, 2), (1, 2), (0, 2), (0, 3)]"
4,42,right,True,2023-08-03 13:52:34.542,2023-08-03 13:52:46.983,12.441,60,right,7000,14000,V,"[(3, 1), (3, 2), (4, 2), (4, 3), (3, 3), (3, 4), (2, 4), (2, 3), (0, 3)]","[(3, 1), (3, 2), (4, 2), (4, 3), (3, 3), (3, 4), (2, 4), (2, 3), (1, 3)]"
4,43,right,True,2023-08-03 13:53:04.018,2023-08-03 13:53:09.257,5.239000000000001,63,right,7000,14000,V,"[(0, 3), (1, 3), (1, 2), (0, 2), (0, 1), (1, 1), (1, 0), (0, 0), (2, 4)]","[(0, 3), (1, 3), (1, 2), (0, 2), (0, 1), (1, 1), (1, 0), (2, 0), (2, 4)]"
4,44,right,True,2023-08-03 13:53:26.294,2023-08-03 13:53:31.600,5.306,54,right,7000,14000,V,"[(4, 3), (3, 3), (3, 2), (2, 2), (2, 1), (1, 1), (1, 2), (0, 2), (1, 3)]","[(4, 3), (3, 3), (2, 3), (2, 2), (2, 1), (1, 1), (1, 2), (0, 2), (1, 3)]"
4,45,left,True,2023-08-03 13:53:48.637,2023-08-03 13:54:01.900,13.263000000000002,73,left,7000,14000,V,"[(4, 2), (4, 1), (3, 1), (3, 2), (2, 2), (2, 1), (1, 1), (1, 2), (1, 4)]","[(4, 2), (4, 1), (3, 1), (3, 2), (2, 2), (2, 1), (1, 1), (0, 1), (1, 4)]"
4,46,left,False,2023-08-03 13:57:56.186,2023-08-03 13:58:10.904,14.718000000000002,83,right,7000,14000,H,"[(3, 2), (4, 2), (4, 3), (3, 3), (3, 4), (2, 4), (2, 3), (2, 2), (0, 3)]","[(3, 2), (4, 2), (4, 3), (4, 4), (3, 4), (2, 4), (2, 3), (2, 2), (0, 3)]"
4,47,left,False,2023-08-03 13:58:27.941,2023-08-03 13:58:41.623,13.682,44,right,7000,14000,H,"[(4, 3), (4, 4), (3, 4), (3, 3), (2, 3), (2, 2), (3, 2), (4, 2), (4, 0)]","[(4, 3), (4, 4), (3, 4), (2, 4), (2, 3), (2, 2), (3, 2), (4, 2), (4, 0)]"
4,48,right,True,2023-08-03 13:58:58.659,2023-08-03 13:59:04.977,6.3180000000000005,2,right,7000,14000,H,"[(4, 1), (4, 2), (3, 2), (3, 1), (2, 1), (2, 2), (1, 2), (1, 1), (4, 3)]","[(4, 1), (4, 2), (3, 2), (3, 1), (2, 1), (2, 2), (1, 2), (0, 2), (4, 3)]"
4,49,left,True,2023-08-03 13:59:22.013,2023-08-03 13:59:41.131,19.118000000000002,84,left,7000,14000,H,"[(2, 0), (1, 0), (1, 1), (2, 1), (2, 2), (1, 2), (1, 3), (1, 4), (0, 3)]","[(2, 0), (1, 0), (1, 1), (2, 1), (2, 2), (2, 3), (1, 3), (1, 4), (0, 3)]"
4,50,left,True,2023-08-03 13:59:58.166,2023-08-03 14:00:13.484,15.318000000000001,75,left,7000,14000,H,"[(0, 4), (1, 4), (1, 3), (2, 3), (2, 4), (3, 4), (3, 3), (4, 3), (3, 1)]","[(0, 4), (1, 4), (1, 3), (2, 3), (2, 4), (3, 4), (3, 3), (3, 2), (3, 1)]"
4,51,left,True,2023-08-03 14:00:30.519,2023-08-03 14:00:37.200,6.681,21,left,7000,14000,VH,"[(0, 4), (0, 3), (1, 3), (1, 2), (2, 2), (2, 1), (1, 1), (0, 1), (3, 1)]","[(0, 4), (0, 3), (0, 2), (1, 2), (2, 2), (2, 1), (1, 1), (0, 1), (3, 1)]"
4,52,left,True,2023-08-03 14:00:54.240,2023-08-03 14:01:00.970,6.73,47,left,7000,14000,VH,"[(4, 0), (4, 1), (3, 1), (3, 0), (2, 0), (2, 1), (1, 1), (1, 0), (4, 2)]","[(4, 0), (4, 1), (3, 1), (3, 0), (2, 0), (2, 1), (1, 1), (0, 1), (4, 2)]"
4,53,right,True,2023-08-03 14:01:18.005,2023-08-03 14:01:35.233,17.228,70,right,7000,14000,VH,"[(0, 0), (1, 0), (1, 1), (0, 1), (0, 2), (1, 2), (1, 3), (0, 3), (3, 1)]","[(0, 0), (1, 0), (1, 1), (0, 1), (0, 2), (1, 2), (1, 3), (0, 3), (3, 2)]"
4,54,right,True,2023-08-03 14:01:52.269,2023-08-03 14:02:03.966,11.697000000000001,33,right,7000,14000,VH,"[(4, 2), (4, 3), (3, 3), (3, 2), (2, 2), (2, 3), (1, 3), (1, 4), (0, 1)]","[(4, 2), (4, 3), (3, 3), (3, 2), (2, 2), (1, 2), (1, 3), (1, 4), (0, 1)]"
4,55,right,True,2023-08-03 14:02:21.001,2023-08-03 14:02:26.341,5.340000000000001,5,right,7000,14000,VH,"[(1, 1), (2, 1), (2, 2), (1, 2), (1, 3), (2, 3), (2, 4), (1, 4), (0, 2)]","[(1, 1), (2, 1), (2, 2), (1, 2), (1, 3), (2, 3), (2, 4), (3, 4), (0, 2)]"
4,56,right,True,2023-08-03 14:02:43.378,2023-08-03 14:02:48.662,5.284000000000001,76,right,7000,14000,V,"[(1, 3), (2, 3), (2, 2), (3, 2), (3, 1), (2, 1), (2, 0), (3, 0), (1, 4)]","[(1, 3), (2, 3), (3, 3), (3, 2), (3, 1), (2, 1), (2, 0), (3, 0), (1, 4)]"
4,57,right,True,2023-08-03 14:03:05.699,2023-08-03 14:03:10.105,4.406000000000001,85,right,7000,14000,V,"[(2, 1), (2, 0), (3, 0), (3, 1), (4, 1), (4, 2), (3, 2), (2, 2), (4, 3)]","[(2, 1), (2, 0), (3, 0), (4, 0), (4, 1), (4, 2), (3, 2), (2, 2), (4, 3)]"
4,58,left,True,2023-08-03 14:03:27.130,2023-08-03 14:03:34.436,7.306,31,left,7000,14000,V,"[(3, 2), (2, 2), (2, 3), (3, 3), (3, 4), (4, 4), (4, 3), (4, 2), (0, 4)]","[(3, 2), (2, 2), (2, 3), (2, 4), (3, 4), (4, 4), (4, 3), (4, 2), (0, 4)]"
4,59,left,True,2023-08-03 14:03:51.473,2023-08-03 14:03:59.391,7.918,36,left,7000,14000,V,"[(2, 3), (2, 4), (1, 4), (1, 3), (0, 3), (0, 2), (1, 2), (2, 2), (2, 0)]","[(2, 3), (2, 4), (1, 4), (0, 4), (0, 3), (0, 2), (1, 2), (2, 2), (2, 0)]"
4,60,left,True,2023-08-03 14:04:16.417,2023-08-03 14:04:21.102,4.6850000000000005,49,left,7000,14000,V,"[(0, 0), (0, 1), (1, 1), (1, 0), (2, 0), (2, 1), (3, 1), (3, 2), (1, 3)]","[(0, 0), (0, 1), (1, 1), (1, 0), (2, 0), (3, 0), (3, 1), (3, 2), (1, 3)]"
4,61,right,True,2023-08-03 14:07:50.224,2023-08-03 14:07:55.276,5.0520000000000005,79,right,7000,14000,H,"[(1, 1), (1, 2), (2, 2), (2, 1), (3, 1), (3, 2), (4, 2), (4, 1), (0, 4)]","[(1, 1), (1, 2), (2, 2), (2, 1), (3, 1), (3, 2), (4, 2), (4, 3), (0, 4)]"
4,62,left,False,2023-08-03 14:08:12.312,2023-08-03 14:08:27.085,14.773000000000001,88,right,7000,14000,H,"[(3, 4), (4, 4), (4, 3), (3, 3), (3, 2), (2, 2), (2, 1), (3, 1), (0, 3)]","[(3, 4), (4, 4), (4, 3), (4, 2), (3, 2), (2, 2), (2, 1), (3, 1), (0, 3)]"
4,63,left,True,2023-08-03 14:08:44.121,2023-08-03 14:09:00.482,16.361,12,left,7000,14000,H,"[(2, 4), (1, 4), (1, 3), (0, 3), (0, 2), (1, 2), (1, 1), (1, 0), (4, 0)]","[(2, 4), (1, 4), (0, 4), (0, 3), (0, 2), (1, 2), (1, 1), (1, 0), (4, 0)]"
4,64,right,True,2023-08-03 14:09:17.507,2023-08-03 14:09:27.702,10.195,34,right,7000,14000,H,"[(0, 2), (1, 2), (1, 3), (2, 3), (2, 4), (3, 4), (3, 3), (3, 2), (4, 0)]","[(0, 2), (1, 2), (2, 2), (2, 3), (2, 4), (3, 4), (3, 3), (3, 2), (4, 0)]"
4,65,right,True,2023-08-03 14:09:44.728,2023-08-03 14:09:50.022,5.2940000000000005,11,right,7000,14000,H,"[(1, 0), (1, 1), (2, 1), (2, 2), (1, 2), (1, 3), (0, 3), (0, 2), (4, 3)]","[(1, 0), (1, 1), (2, 1), (2, 2), (2, 3), (1, 3), (0, 3), (0, 2), (4, 3)]"
4,66,right,True,2023-08-03 14:10:07.049,2023-08-03 14:10:11.076,4.027,16,right,7000,14000,V,"[(0, 0), (1, 0), (1, 1), (2, 1), (2, 0), (3, 0), (3, 1), (3, 2), (0, 3)]","[(0, 0), (1, 0), (1, 1), (2, 1), (2, 0), (3, 0), (3, 1), (4, 1), (0, 3)]"
4,67,left,True,2023-08-03 14:10:28.113,2023-08-03 14:10:32.554,4.441,46,left,7000,14000,V,"[(4, 1), (4, 2), (3, 2), (3, 1), (2, 1), (2, 0), (1, 0), (1, 1), (0, 1)]","[(4, 1), (4, 2), (3, 2), (2, 2), (2, 1), (2, 0), (1, 0), (1, 1), (0, 1)]"
4,68,right,True,2023-08-03 14:10:49.590,2023-08-03 14:11:04.506,14.916,90,right,7000,14000,V,"[(4, 0), (4, 1), (3, 1), (3, 2), (2, 2), (2, 3), (1, 3), (0, 3), (3, 3)]","[(4, 0), (4, 1), (3, 1), (3, 2), (2, 2), (2, 3), (1, 3), (0, 3), (3, 4)]"
4,69,right,True,2023-08-03 14:11:21.543,2023-08-03 14:11:26.015,4.472,24,right,7000,14000,V,"[(1, 4), (2, 4), (2, 3), (1, 3), (1, 2), (2, 2), (2, 1), (3, 1), (3, 0)]","[(1, 4), (2, 4), (2, 3), (1, 3), (1, 2), (1, 1), (2, 1), (3, 1), (3, 0)]"
4,70,right,True,2023-08-03 14:11:43.053,2023-08-03 14:11:48.204,5.151000000000001,86,right,7000,14000,V,"[(2, 3), (2, 2), (3, 2), (3, 3), (4, 3), (4, 4), (3, 4), (2, 4), (2, 0)]","[(2, 3), (2, 2), (3, 2), (4, 2), (4, 3), (4, 4), (3, 4), (2, 4), (2, 0)]"
4,71,right,True,2023-08-03 14:12:05.229,2023-08-03 14:12:10.190,4.961,14,right,7000,14000,VH,"[(0, 3), (0, 4), (1, 4), (1, 3), (2, 3), (2, 2), (3, 2), (3, 3), (0, 0)]","[(0, 3), (0, 4), (1, 4), (2, 4), (2, 3), (2, 2), (3, 2), (3, 3), (0, 0)]"
4,72,right,True,2023-08-03 14:12:27.228,2023-08-03 14:12:30.578,3.35,65,right,7000,14000,VH,"[(0, 0), (0, 1), (1, 1), (1, 0), (2, 0), (2, 1), (3, 1), (4, 1), (3, 3)]","[(0, 0), (0, 1), (1, 1), (1, 0), (2, 0), (3, 0), (3, 1), (4, 1), (3, 3)]"
4,73,right,True,2023-08-03 14:12:47.615,2023-08-03 14:12:52.865,5.25,64,right,7000,14000,VH,"[(4, 0), (4, 1), (3, 1), (3, 2), (4, 2), (4, 3), (3, 3), (3, 4), (0, 2)]","[(4, 0), (4, 1), (3, 1), (3, 2), (4, 2), (4, 3), (3, 3), (2, 3), (0, 2)]"
4,74,left,True,2023-08-03 14:13:09.902,2023-08-03 14:13:16.109,6.207000000000001,18,left,7000,14000,VH,"[(4, 1), (3, 1), (3, 2), (4, 2), (4, 3), (3, 3), (3, 4), (2, 4), (2, 2)]","[(4, 1), (3, 1), (3, 2), (4, 2), (4, 3), (4, 4), (3, 4), (2, 4), (2, 2)]"
4,75,left,True,2023-08-03 14:13:33.134,2023-08-03 14:13:40.429,7.295000000000001,66,left,7000,14000,VH,"[(3, 0), (4, 0), (4, 1), (3, 1), (3, 2), (4, 2), (4, 3), (3, 3), (2, 2)]","[(3, 0), (4, 0), (4, 1), (3, 1), (3, 2), (4, 2), (4, 3), (4, 4), (2, 2)]"
4,76,left,True,2023-08-03 14:16:21.880,2023-08-03 14:16:29.519,7.639,23,left,7000,14000,VH,"[(4, 2), (4, 1), (3, 1), (3, 2), (2, 2), (2, 1), (1, 1), (1, 0), (2, 0)]","[(4, 2), (4, 1), (3, 1), (3, 2), (2, 2), (1, 2), (1, 1), (1, 0), (2, 0)]"
4,77,left,True,2023-08-03 14:16:46.556,2023-08-03 14:16:51.194,4.638,29,left,7000,14000,VH,"[(2, 2), (1, 2), (1, 1), (2, 1), (2, 0), (3, 0), (3, 1), (3, 2), (4, 4)]","[(2, 2), (1, 2), (1, 1), (1, 0), (2, 0), (3, 0), (3, 1), (3, 2), (4, 4)]"
4,78,left,True,2023-08-03 14:17:08.231,2023-08-03 14:17:12.604,4.373,51,left,7000,14000,VH,"[(2, 0), (1, 0), (1, 1), (2, 1), (2, 2), (3, 2), (3, 1), (4, 1), (0, 3)]","[(2, 0), (1, 0), (1, 1), (1, 2), (2, 2), (3, 2), (3, 1), (4, 1), (0, 3)]"
4,79,right,True,2023-08-03 14:17:29.640,2023-08-03 14:17:40.925,11.285,81,right,7000,14000,VH,"[(4, 0), (4, 1), (3, 1), (3, 2), (4, 2), (4, 3), (3, 3), (3, 4), (1, 3)]","[(4, 0), (4, 1), (3, 1), (3, 2), (4, 2), (4, 3), (3, 3), (2, 3), (1, 3)]"
4,80,left,True,2023-08-03 14:17:57.961,2023-08-03 14:18:03.222,5.261,15,left,7000,14000,VH,"[(4, 3), (4, 2), (3, 2), (3, 3), (2, 3), (2, 4), (1, 4), (0, 4), (1, 0)]","[(4, 3), (4, 2), (3, 2), (2, 2), (2, 3), (2, 4), (1, 4), (0, 4), (1, 0)]"
4,81,right,True,2023-08-03 14:18:20.260,2023-08-03 14:18:25.209,4.949000000000001,62,right,7000,14000,V,"[(1, 0), (2, 0), (2, 1), (3, 1), (3, 2), (2, 2), (2, 3), (2, 4), (0, 1)]","[(1, 0), (2, 0), (3, 0), (3, 1), (3, 2), (2, 2), (2, 3), (2, 4), (0, 1)]"
4,82,left,True,2023-08-03 14:18:42.247,2023-08-03 14:18:49.986,7.739000000000001,28,left,7000,14000,V,"[(0, 4), (0, 3), (1, 3), (1, 2), (0, 2), (0, 1), (1, 1), (1, 0), (3, 1)]","[(0, 4), (0, 3), (1, 3), (1, 2), (0, 2), (0, 1), (1, 1), (2, 1), (3, 1)]"
4,83,left,True,2023-08-03 14:19:07.013,2023-08-03 14:19:11.951,4.938000000000001,68,left,7000,14000,V,"[(0, 3), (0, 2), (1, 2), (1, 3), (2, 3), (2, 4), (1, 4), (0, 4), (4, 4)]","[(0, 3), (0, 2), (1, 2), (2, 2), (2, 3), (2, 4), (1, 4), (0, 4), (4, 4)]"
4,84,right,True,2023-08-03 14:19:28.988,2023-08-03 14:19:42.859,13.871,10,right,7000,14000,V,"[(4, 2), (4, 3), (3, 3), (3, 2), (2, 2), (2, 3), (1, 3), (0, 3), (4, 0)]","[(4, 2), (4, 3), (3, 3), (3, 2), (2, 2), (2, 3), (1, 3), (0, 3), (4, 1)]"
4,85,left,True,2023-08-03 14:19:59.897,2023-08-03 14:20:06.148,6.251,77,left,7000,14000,V,"[(1, 1), (2, 1), (2, 2), (1, 2), (1, 3), (2, 3), (2, 4), (1, 4), (4, 3)]","[(1, 1), (2, 1), (2, 2), (1, 2), (1, 3), (2, 3), (2, 4), (3, 4), (4, 3)]"
4,86,left,True,2023-08-03 14:20:23.173,2023-08-03 14:20:38.146,14.973,19,left,7000,14000,H,"[(4, 4), (4, 3), (3, 3), (3, 2), (2, 2), (2, 1), (3, 1), (3, 0), (0, 0)]","[(4, 4), (4, 3), (4, 2), (3, 2), (2, 2), (2, 1), (3, 1), (3, 0), (0, 0)]"
4,87,right,False,2023-08-03 14:20:55.183,2023-08-03 14:21:07.066,11.883000000000001,50,left,7000,14000,H,"[(4, 4), (4, 3), (3, 3), (3, 2), (2, 2), (2, 3), (1, 3), (1, 4), (0, 3)]","[(4, 4), (4, 3), (3, 3), (3, 2), (2, 2), (2, 3), (1, 3), (1, 4), (0, 4)]"
4,88,left,False,2023-08-03 14:21:24.092,2023-08-03 14:21:39.209,15.117,25,right,7000,14000,H,"[(0, 3), (0, 2), (1, 2), (1, 3), (2, 3), (2, 2), (3, 2), (3, 1), (0, 0)]","[(0, 3), (0, 2), (1, 2), (1, 3), (2, 3), (3, 3), (3, 2), (3, 1), (0, 0)]"
4,89,right,True,2023-08-03 14:21:56.244,2023-08-03 14:22:07.729,11.485000000000001,39,right,7000,14000,H,"[(4, 0), (4, 1), (3, 1), (3, 0), (2, 0), (2, 1), (1, 1), (0, 1), (1, 3)]","[(4, 0), (4, 1), (3, 1), (3, 0), (2, 0), (1, 0), (1, 1), (0, 1), (1, 3)]"
4,90,left,True,2023-08-03 14:22:24.765,2023-08-03 14:22:32.648,7.883000000000001,1,left,7000,14000,H,"[(4, 2), (4, 3), (3, 3), (3, 2), (2, 2), (2, 1), (1, 1), (1, 0), (0, 1)]","[(4, 2), (4, 3), (3, 3), (2, 3), (2, 2), (2, 1), (1, 1), (1, 0), (0, 1)]"
5,1,left,True,2023-08-04 07:50:59.637,2023-08-04 07:51:16.021,16.384,59,left,7000,14000,H,"[(0, 4), (0, 3), (1, 3), (1, 4), (2, 4), (2, 3), (3, 3), (3, 2), (2, 1)]","[(0, 4), (0, 3), (1, 3), (1, 4), (2, 4), (3, 4), (3, 3), (3, 2), (2, 1)]"
5,2,left,False,2023-08-04 07:51:33.057,2023-08-04 07:51:47.631,14.574000000000002,82,right,7000,14000,H,"[(1, 0), (1, 1), (2, 1), (2, 0), (3, 0), (3, 1), (4, 1), (4, 0), (0, 3)]","[(1, 0), (1, 1), (2, 1), (2, 0), (3, 0), (3, 1), (4, 1), (4, 2), (0, 3)]"
5,3,left,True,2023-08-04 07:52:04.666,2023-08-04 07:52:17.739,13.073,80,left,7000,14000,H,"[(4, 4), (4, 3), (3, 3), (3, 4), (2, 4), (2, 3), (1, 3), (1, 2), (0, 1)]","[(4, 4), (4, 3), (3, 3), (3, 4), (2, 4), (2, 3), (1, 3), (1, 2), (0, 2)]"
5,4,right,True,2023-08-04 07:52:34.780,2023-08-04 07:52:43.338,8.558,35,right,7000,14000,H,"[(4, 4), (4, 3), (3, 3), (3, 4), (2, 4), (2, 3), (1, 3), (0, 3), (1, 2)]","[(4, 4), (4, 3), (3, 3), (3, 4), (2, 4), (1, 4), (1, 3), (0, 3), (1, 2)]"
5,5,left,False,2023-08-04 07:53:00.373,2023-08-04 07:53:15.335,14.962000000000002,20,right,7000,14000,H,"[(0, 1), (0, 2), (1, 2), (1, 3), (2, 3), (2, 2), (3, 2), (4, 2), (0, 0)]","[(0, 1), (0, 2), (1, 2), (1, 3), (2, 3), (2, 2), (3, 2), (4, 2), (1, 0)]"
5,6,left,True,2023-08-04 07:53:32.372,2023-08-04 07:53:40.022,7.65,8,left,7000,14000,V,"[(1, 4), (2, 4), (2, 3), (1, 3), (1, 2), (0, 2), (0, 3), (0, 4), (1, 0)]","[(1, 4), (2, 4), (2, 3), (2, 2), (1, 2), (0, 2), (0, 3), (0, 4), (1, 0)]"
5,7,right,False,2023-08-04 07:53:57.059,2023-08-04 07:54:07.822,10.763,48,left,7000,14000,V,"[(2, 3), (2, 4), (3, 4), (3, 3), (4, 3), (4, 2), (3, 2), (2, 2), (0, 1)]","[(2, 3), (2, 4), (3, 4), (4, 4), (4, 3), (4, 2), (3, 2), (2, 2), (0, 1)]"
5,8,left,False,2023-08-04 07:54:24.856,2023-08-04 07:54:32.363,7.507000000000001,17,right,7000,14000,V,"[(1, 0), (2, 0), (2, 1), (1, 1), (1, 2), (2, 2), (2, 3), (3, 3), (0, 1)]","[(1, 0), (2, 0), (2, 1), (1, 1), (1, 2), (1, 3), (2, 3), (3, 3), (0, 1)]"
5,9,right,False,2023-08-04 07:54:49.399,2023-08-04 07:55:02.716,13.317,9,left,7000,14000,V,"[(3, 2), (4, 2), (4, 1), (3, 1), (3, 0), (2, 0), (2, 1), (2, 2), (3, 3)]","[(3, 2), (4, 2), (4, 1), (4, 0), (3, 0), (2, 0), (2, 1), (2, 2), (3, 3)]"
5,10,right,True,2023-08-04 07:55:19.753,2023-08-04 07:55:26.414,6.6610000000000005,7,right,7000,14000,V,"[(1, 4), (1, 3), (2, 3), (2, 2), (3, 2), (3, 1), (2, 1), (1, 1), (2, 0)]","[(1, 4), (1, 3), (1, 2), (2, 2), (3, 2), (3, 1), (2, 1), (1, 1), (2, 0)]"
5,11,right,True,2023-08-04 07:55:43.451,2023-08-04 07:55:52.623,9.172,87,right,7000,14000,VH,"[(4, 1), (4, 2), (3, 2), (3, 1), (2, 1), (2, 2), (1, 2), (1, 1), (2, 0)]","[(4, 1), (4, 2), (3, 2), (3, 1), (2, 1), (2, 2), (1, 2), (0, 2), (2, 0)]"
5,12,left,True,2023-08-04 07:56:09.660,2023-08-04 07:56:15.303,5.643000000000001,40,left,7000,14000,VH,"[(0, 0), (1, 0), (1, 1), (0, 1), (0, 2), (1, 2), (1, 3), (0, 3), (4, 3)]","[(0, 0), (1, 0), (1, 1), (0, 1), (0, 2), (1, 2), (1, 3), (0, 3), (3, 3)]"
5,13,left,True,2023-08-04 07:56:32.336,2023-08-04 07:56:39.433,7.097,3,left,7000,14000,VH,"[(3, 4), (3, 3), (2, 3), (2, 4), (1, 4), (1, 3), (0, 3), (0, 2), (3, 2)]","[(3, 4), (3, 3), (2, 3), (2, 4), (1, 4), (0, 4), (0, 3), (0, 2), (3, 2)]"
5,14,right,True,2023-08-04 07:56:56.469,2023-08-04 07:57:03.919,7.45,78,right,7000,14000,VH,"[(3, 2), (4, 2), (4, 3), (3, 3), (3, 4), (2, 4), (2, 3), (1, 3), (1, 1)]","[(3, 2), (4, 2), (4, 3), (4, 4), (3, 4), (2, 4), (2, 3), (1, 3), (1, 1)]"
5,15,left,True,2023-08-04 07:57:20.955,2023-08-04 07:57:31.528,10.573,26,left,7000,14000,VH,"[(1, 3), (1, 2), (2, 2), (2, 1), (3, 1), (3, 0), (2, 0), (1, 0), (4, 0)]","[(1, 3), (1, 2), (1, 1), (2, 1), (3, 1), (3, 0), (2, 0), (1, 0), (4, 0)]"
5,16,right,True,2023-08-04 08:00:55.330,2023-08-04 08:01:03.449,8.119,74,right,7000,14000,VH,"[(0, 0), (0, 1), (1, 1), (1, 0), (2, 0), (2, 1), (3, 1), (4, 1), (4, 4)]","[(0, 0), (0, 1), (1, 1), (1, 0), (2, 0), (3, 0), (3, 1), (4, 1), (4, 4)]"
5,17,left,True,2023-08-04 08:01:20.484,2023-08-04 08:01:30.279,9.795,38,left,7000,14000,VH,"[(0, 0), (1, 0), (1, 1), (2, 1), (2, 2), (1, 2), (1, 3), (1, 4), (4, 2)]","[(0, 0), (1, 0), (2, 0), (2, 1), (2, 2), (1, 2), (1, 3), (1, 4), (4, 2)]"
5,18,right,True,2023-08-04 08:01:47.311,2023-08-04 08:01:54.632,7.321000000000001,4,right,7000,14000,VH,"[(4, 3), (4, 2), (3, 2), (3, 3), (2, 3), (2, 2), (1, 2), (1, 3), (4, 4)]","[(4, 3), (4, 2), (3, 2), (3, 3), (2, 3), (2, 2), (1, 2), (0, 2), (4, 4)]"
5,19,right,True,2023-08-04 08:02:11.660,2023-08-04 08:02:19.789,8.129000000000001,37,right,7000,14000,VH,"[(4, 0), (4, 1), (3, 1), (3, 2), (2, 2), (2, 3), (3, 3), (4, 3), (2, 1)]","[(4, 0), (4, 1), (4, 2), (3, 2), (2, 2), (2, 3), (3, 3), (4, 3), (2, 1)]"
5,20,right,False,2023-08-04 08:02:36.824,2023-08-04 08:02:51.686,14.862,89,left,7000,14000,VH,"[(0, 3), (0, 4), (1, 4), (1, 3), (2, 3), (2, 2), (3, 2), (3, 1), (2, 0)]","[(0, 3), (0, 4), (1, 4), (2, 4), (2, 3), (2, 2), (3, 2), (3, 1), (2, 0)]"
5,21,left,True,2023-08-04 08:03:08.721,2023-08-04 08:03:12.074,3.353,58,left,7000,14000,V,"[(0, 1), (0, 0), (1, 0), (1, 1), (2, 1), (2, 0), (3, 0), (4, 0), (2, 3)]","[(0, 1), (0, 0), (1, 0), (1, 1), (2, 1), (3, 1), (3, 0), (4, 0), (2, 3)]"
5,22,left,True,2023-08-04 08:03:29.111,2023-08-04 08:03:31.116,2.0050000000000003,60,left,7000,14000,V,"[(3, 1), (3, 2), (4, 2), (4, 3), (3, 3), (3, 4), (2, 4), (2, 3), (0, 3)]","[(3, 1), (3, 2), (4, 2), (4, 3), (3, 3), (3, 4), (2, 4), (2, 3), (1, 3)]"
5,23,right,False,2023-08-04 08:03:48.154,2023-08-04 08:03:58.280,10.126000000000001,71,left,7000,14000,V,"[(0, 1), (1, 1), (1, 2), (2, 2), (2, 1), (3, 1), (3, 0), (4, 0), (0, 4)]","[(0, 1), (1, 1), (1, 2), (2, 2), (3, 2), (3, 1), (3, 0), (4, 0), (0, 4)]"
5,24,right,True,2023-08-04 08:04:15.307,2023-08-04 08:04:26.412,11.105,90,right,7000,14000,V,"[(4, 0), (4, 1), (3, 1), (3, 2), (2, 2), (2, 3), (1, 3), (0, 3), (3, 3)]","[(4, 0), (4, 1), (3, 1), (3, 2), (2, 2), (2, 3), (1, 3), (0, 3), (3, 4)]"
5,25,right,True,2023-08-04 08:04:43.449,2023-08-04 08:04:57.366,13.917000000000002,69,right,7000,14000,V,"[(3, 4), (2, 4), (2, 3), (1, 3), (1, 2), (2, 2), (2, 1), (3, 1), (0, 2)]","[(3, 4), (2, 4), (1, 4), (1, 3), (1, 2), (2, 2), (2, 1), (3, 1), (0, 2)]"
5,26,right,False,2023-08-04 08:05:14.404,2023-08-04 08:05:28.153,13.749,67,left,7000,14000,H,"[(0, 2), (0, 3), (1, 3), (1, 2), (2, 2), (2, 1), (1, 1), (1, 0), (0, 4)]","[(0, 2), (0, 3), (1, 3), (2, 3), (2, 2), (2, 1), (1, 1), (1, 0), (0, 4)]"
5,27,left,False,2023-08-04 08:05:45.189,2023-08-04 08:05:56.595,11.406,53,right,7000,14000,H,"[(1, 4), (2, 4), (2, 3), (3, 3), (3, 2), (4, 2), (4, 1), (4, 0), (1, 0)]","[(1, 4), (2, 4), (3, 4), (3, 3), (3, 2), (4, 2), (4, 1), (4, 0), (1, 0)]"
5,28,left,True,2023-08-04 08:06:13.631,2023-08-04 08:06:27.738,14.107000000000001,50,left,7000,14000,H,"[(4, 4), (4, 3), (3, 3), (3, 2), (2, 2), (2, 3), (1, 3), (1, 4), (0, 3)]","[(4, 4), (4, 3), (3, 3), (3, 2), (2, 2), (2, 3), (1, 3), (1, 4), (0, 4)]"
5,29,right,True,2023-08-04 08:06:44.774,2023-08-04 08:06:55.314,10.540000000000001,6,right,7000,14000,H,"[(4, 4), (4, 3), (3, 3), (3, 2), (2, 2), (2, 3), (1, 3), (1, 2), (1, 1)]","[(4, 4), (4, 3), (4, 2), (3, 2), (2, 2), (2, 3), (1, 3), (1, 2), (1, 1)]"
5,30,left,True,2023-08-04 08:07:12.350,2023-08-04 08:07:27.622,15.272,72,left,7000,14000,H,"[(4, 1), (4, 2), (3, 2), (3, 1), (2, 1), (2, 2), (1, 2), (0, 2), (0, 1)]","[(4, 1), (4, 2), (3, 2), (3, 1), (2, 1), (1, 1), (1, 2), (0, 2), (0, 1)]"
5,31,left,False,2023-08-04 08:13:06.960,2023-08-04 08:13:21.944,14.984000000000002,27,right,7000,14000,H,"[(0, 4), (0, 3), (1, 3), (1, 2), (2, 2), (2, 1), (1, 1), (1, 0), (4, 0)]","[(0, 4), (0, 3), (0, 2), (1, 2), (2, 2), (2, 1), (1, 1), (1, 0), (4, 0)]"
5,32,left,False,2023-08-04 08:13:38.981,2023-08-04 08:13:47.310,8.329,42,right,7000,14000,H,"[(0, 3), (0, 4), (1, 4), (1, 3), (2, 3), (2, 2), (3, 2), (3, 3), (4, 2)]","[(0, 3), (0, 4), (1, 4), (2, 4), (2, 3), (2, 2), (3, 2), (3, 3), (4, 2)]"
5,33,right,False,2023-08-04 08:14:04.346,2023-08-04 08:14:10.363,6.017,13,left,7000,14000,H,"[(4, 1), (4, 0), (3, 0), (3, 1), (2, 1), (2, 2), (3, 2), (3, 3), (0, 3)]","[(4, 1), (4, 0), (3, 0), (2, 0), (2, 1), (2, 2), (3, 2), (3, 3), (0, 3)]"
5,34,left,False,2023-08-04 08:14:27.388,2023-08-04 08:14:37.740,10.352,32,right,7000,14000,H,"[(0, 4), (1, 4), (1, 3), (2, 3), (2, 4), (3, 4), (3, 3), (3, 2), (4, 2)]","[(0, 4), (1, 4), (1, 3), (2, 3), (2, 4), (3, 4), (3, 3), (4, 3), (4, 2)]"
5,35,left,True,2023-08-04 08:14:54.775,2023-08-04 08:15:05.169,10.394,43,left,7000,14000,H,"[(1, 3), (2, 3), (2, 2), (3, 2), (3, 3), (4, 3), (4, 4), (3, 4), (2, 4)]","[(1, 3), (2, 3), (2, 2), (3, 2), (4, 2), (4, 3), (4, 4), (3, 4), (2, 4)]"
5,36,left,True,2023-08-04 08:15:22.206,2023-08-04 08:15:26.326,4.12,41,left,7000,14000,V,"[(1, 0), (1, 1), (2, 1), (2, 2), (3, 2), (3, 1), (4, 1), (4, 0), (2, 3)]","[(1, 0), (1, 1), (1, 2), (2, 2), (3, 2), (3, 1), (4, 1), (4, 0), (2, 3)]"
5,37,right,False,2023-08-04 08:15:43.364,2023-08-04 08:15:46.601,3.237,56,left,7000,14000,V,"[(2, 0), (1, 0), (1, 1), (0, 1), (0, 2), (1, 2), (1, 3), (2, 3), (3, 4)]","[(2, 0), (1, 0), (0, 0), (0, 1), (0, 2), (1, 2), (1, 3), (2, 3), (3, 4)]"
5,38,left,False,2023-08-04 08:16:03.627,2023-08-04 08:16:10.855,7.228000000000001,55,right,7000,14000,V,"[(3, 4), (4, 4), (4, 3), (3, 3), (3, 2), (4, 2), (4, 1), (4, 0), (2, 2)]","[(3, 4), (4, 4), (4, 3), (3, 3), (3, 2), (3, 1), (4, 1), (4, 0), (2, 2)]"
5,39,right,True,2023-08-04 08:16:27.892,2023-08-04 08:16:35.987,8.095,10,right,7000,14000,V,"[(4, 2), (4, 3), (3, 3), (3, 2), (2, 2), (2, 3), (1, 3), (0, 3), (4, 0)]","[(4, 2), (4, 3), (3, 3), (3, 2), (2, 2), (2, 3), (1, 3), (0, 3), (4, 1)]"
5,40,right,True,2023-08-04 08:16:53.024,2023-08-04 08:17:05.396,12.372,52,right,7000,14000,V,"[(4, 4), (3, 4), (3, 3), (4, 3), (4, 2), (3, 2), (3, 1), (4, 1), (0, 4)]","[(4, 4), (3, 4), (3, 3), (4, 3), (4, 2), (3, 2), (3, 1), (2, 1), (0, 4)]"
5,41,left,True,2023-08-04 08:17:22.433,2023-08-04 08:17:31.927,9.494,45,left,7000,14000,VH,"[(0, 3), (0, 4), (1, 4), (1, 3), (2, 3), (2, 4), (3, 4), (4, 4), (3, 0)]","[(0, 3), (0, 4), (1, 4), (1, 3), (2, 3), (3, 3), (3, 4), (4, 4), (3, 0)]"
5,42,left,True,2023-08-04 08:17:48.964,2023-08-04 08:17:51.971,3.007,70,left,7000,14000,VH,"[(0, 0), (1, 0), (1, 1), (0, 1), (0, 2), (1, 2), (1, 3), (0, 3), (3, 1)]","[(0, 0), (1, 0), (1, 1), (0, 1), (0, 2), (1, 2), (1, 3), (0, 3), (3, 2)]"
5,43,right,True,2023-08-04 08:18:09.007,2023-08-04 08:18:17.412,8.405000000000001,22,right,7000,14000,VH,"[(4, 0), (3, 0), (3, 1), (2, 1), (2, 0), (1, 0), (1, 1), (1, 2), (3, 4)]","[(4, 0), (3, 0), (3, 1), (2, 1), (2, 0), (1, 0), (1, 1), (0, 1), (3, 4)]"
5,44,right,True,2023-08-04 08:18:34.450,2023-08-04 08:18:42.955,8.505,61,right,7000,14000,VH,"[(2, 3), (3, 3), (3, 2), (2, 2), (2, 1), (3, 1), (3, 0), (2, 0), (1, 1)]","[(2, 3), (3, 3), (3, 2), (2, 2), (2, 1), (3, 1), (3, 0), (4, 0), (1, 1)]"
5,45,right,True,2023-08-04 08:18:59.991,2023-08-04 08:19:09.799,9.808,57,right,7000,14000,VH,"[(4, 1), (4, 2), (3, 2), (3, 3), (2, 3), (2, 2), (1, 2), (0, 2), (0, 3)]","[(4, 1), (4, 2), (4, 3), (3, 3), (2, 3), (2, 2), (1, 2), (0, 2), (0, 3)]"
5,46,left,True,2023-08-04 08:27:34.080,2023-08-04 08:27:41.421,7.341,63,left,7000,14000,VH,"[(0, 3), (1, 3), (1, 2), (0, 2), (0, 1), (1, 1), (1, 0), (0, 0), (2, 4)]","[(0, 3), (1, 3), (1, 2), (0, 2), (0, 1), (1, 1), (1, 0), (2, 0), (2, 4)]"
5,47,right,True,2023-08-04 08:27:58.457,2023-08-04 08:28:05.140,6.683000000000001,54,right,7000,14000,VH,"[(4, 3), (3, 3), (3, 2), (2, 2), (2, 1), (1, 1), (1, 2), (0, 2), (1, 3)]","[(4, 3), (3, 3), (2, 3), (2, 2), (2, 1), (1, 1), (1, 2), (0, 2), (1, 3)]"
5,48,right,False,2023-08-04 08:28:22.178,2023-08-04 08:28:25.872,3.6940000000000004,73,left,7000,14000,VH,"[(4, 2), (4, 1), (3, 1), (3, 2), (2, 2), (2, 1), (1, 1), (1, 2), (1, 4)]","[(4, 2), (4, 1), (3, 1), (3, 2), (2, 2), (2, 1), (1, 1), (0, 1), (1, 4)]"
5,49,left,False,2023-08-04 08:28:42.910,2023-08-04 08:28:53.305,10.395000000000001,83,right,7000,14000,VH,"[(3, 2), (4, 2), (4, 3), (3, 3), (3, 4), (2, 4), (2, 3), (2, 2), (0, 3)]","[(3, 2), (4, 2), (4, 3), (4, 4), (3, 4), (2, 4), (2, 3), (2, 2), (0, 3)]"
5,50,right,True,2023-08-04 08:29:10.341,2023-08-04 08:29:20.579,10.238000000000001,44,right,7000,14000,VH,"[(4, 3), (4, 4), (3, 4), (3, 3), (2, 3), (2, 2), (3, 2), (4, 2), (4, 0)]","[(4, 3), (4, 4), (3, 4), (2, 4), (2, 3), (2, 2), (3, 2), (4, 2), (4, 0)]"
5,51,left,True,2023-08-04 08:29:37.616,2023-08-04 08:29:41.789,4.173,2,left,7000,14000,H,"[(4, 1), (4, 2), (3, 2), (3, 1), (2, 1), (2, 2), (1, 2), (1, 1), (4, 3)]","[(4, 1), (4, 2), (3, 2), (3, 1), (2, 1), (2, 2), (1, 2), (0, 2), (4, 3)]"
5,52,right,False,2023-08-04 08:29:58.827,2023-08-04 08:30:13.789,14.962000000000002,84,left,7000,14000,H,"[(2, 0), (1, 0), (1, 1), (2, 1), (2, 2), (1, 2), (1, 3), (1, 4), (0, 3)]","[(2, 0), (1, 0), (1, 1), (2, 1), (2, 2), (2, 3), (1, 3), (1, 4), (0, 3)]"
5,53,left,True,2023-08-04 08:30:30.824,2023-08-04 08:30:45.785,14.961,75,left,7000,14000,H,"[(0, 4), (1, 4), (1, 3), (2, 3), (2, 4), (3, 4), (3, 3), (4, 3), (3, 1)]","[(0, 4), (1, 4), (1, 3), (2, 3), (2, 4), (3, 4), (3, 3), (3, 2), (3, 1)]"
5,54,left,False,2023-08-04 08:31:02.812,2023-08-04 08:31:12.606,9.794,21,right,7000,14000,H,"[(0, 4), (0, 3), (1, 3), (1, 2), (2, 2), (2, 1), (1, 1), (0, 1), (3, 1)]","[(0, 4), (0, 3), (0, 2), (1, 2), (2, 2), (2, 1), (1, 1), (0, 1), (3, 1)]"
5,55,right,True,2023-08-04 08:31:29.642,2023-08-04 08:31:44.349,14.707,47,right,7000,14000,H,"[(4, 0), (4, 1), (3, 1), (3, 0), (2, 0), (2, 1), (1, 1), (1, 0), (4, 2)]","[(4, 0), (4, 1), (3, 1), (3, 0), (2, 0), (2, 1), (1, 1), (0, 1), (4, 2)]"
5,56,left,True,2023-08-04 08:32:01.385,2023-08-04 08:32:11.025,9.64,33,left,7000,14000,V,"[(4, 2), (4, 3), (3, 3), (3, 2), (2, 2), (2, 3), (1, 3), (1, 4), (0, 1)]","[(4, 2), (4, 3), (3, 3), (3, 2), (2, 2), (1, 2), (1, 3), (1, 4), (0, 1)]"
5,57,left,False,2023-08-04 08:32:28.060,2023-08-04 08:32:37.445,9.385,5,right,7000,14000,V,"[(1, 1), (2, 1), (2, 2), (1, 2), (1, 3), (2, 3), (2, 4), (1, 4), (0, 2)]","[(1, 1), (2, 1), (2, 2), (1, 2), (1, 3), (2, 3), (2, 4), (3, 4), (0, 2)]"
5,58,right,True,2023-08-04 08:32:54.482,2023-08-04 08:33:01.454,6.972,76,right,7000,14000,V,"[(1, 3), (2, 3), (2, 2), (3, 2), (3, 1), (2, 1), (2, 0), (3, 0), (1, 4)]","[(1, 3), (2, 3), (3, 3), (3, 2), (3, 1), (2, 1), (2, 0), (3, 0), (1, 4)]"
5,59,left,True,2023-08-04 08:33:18.493,2023-08-04 08:33:31.699,13.206000000000001,85,left,7000,14000,V,"[(2, 1), (2, 0), (3, 0), (3, 1), (4, 1), (4, 2), (3, 2), (2, 2), (4, 3)]","[(2, 1), (2, 0), (3, 0), (4, 0), (4, 1), (4, 2), (3, 2), (2, 2), (4, 3)]"
5,60,left,True,2023-08-04 08:33:48.734,2023-08-04 08:33:59.695,10.961,31,left,7000,14000,V,"[(3, 2), (2, 2), (2, 3), (3, 3), (3, 4), (4, 4), (4, 3), (4, 2), (0, 4)]","[(3, 2), (2, 2), (2, 3), (2, 4), (3, 4), (4, 4), (4, 3), (4, 2), (0, 4)]"
5,61,right,False,2023-08-04 08:39:15.892,2023-08-04 08:39:30.718,14.826,36,left,7000,14000,H,"[(2, 3), (2, 4), (1, 4), (1, 3), (0, 3), (0, 2), (1, 2), (2, 2), (2, 0)]","[(2, 3), (2, 4), (1, 4), (0, 4), (0, 3), (0, 2), (1, 2), (2, 2), (2, 0)]"
5,62,left,True,2023-08-04 08:39:47.754,2023-08-04 08:40:01.817,14.063,49,left,7000,14000,H,"[(0, 0), (0, 1), (1, 1), (1, 0), (2, 0), (2, 1), (3, 1), (3, 2), (1, 3)]","[(0, 0), (0, 1), (1, 1), (1, 0), (2, 0), (3, 0), (3, 1), (3, 2), (1, 3)]"
5,63,left,True,2023-08-04 08:40:18.853,2023-08-04 08:40:26.426,7.573,79,left,7000,14000,H,"[(1, 1), (1, 2), (2, 2), (2, 1), (3, 1), (3, 2), (4, 2), (4, 1), (0, 4)]","[(1, 1), (1, 2), (2, 2), (2, 1), (3, 1), (3, 2), (4, 2), (4, 3), (0, 4)]"
5,64,right,True,2023-08-04 08:40:43.462,2023-08-04 08:40:57.491,14.029000000000002,88,right,7000,14000,H,"[(3, 4), (4, 4), (4, 3), (3, 3), (3, 2), (2, 2), (2, 1), (3, 1), (0, 3)]","[(3, 4), (4, 4), (4, 3), (4, 2), (3, 2), (2, 2), (2, 1), (3, 1), (0, 3)]"
5,65,right,False,2023-08-04 08:41:14.528,2023-08-04 08:41:23.588,9.06,12,left,7000,14000,H,"[(2, 4), (1, 4), (1, 3), (0, 3), (0, 2), (1, 2), (1, 1), (1, 0), (4, 0)]","[(2, 4), (1, 4), (0, 4), (0, 3), (0, 2), (1, 2), (1, 1), (1, 0), (4, 0)]"
5,66,left,True,2023-08-04 08:41:40.624,2023-08-04 08:41:52.987,12.363000000000001,34,left,7000,14000,VH,"[(0, 2), (1, 2), (1, 3), (2, 3), (2, 4), (3, 4), (3, 3), (3, 2), (4, 0)]","[(0, 2), (1, 2), (2, 2), (2, 3), (2, 4), (3, 4), (3, 3), (3, 2), (4, 0)]"
5,67,left,True,2023-08-04 08:42:10.023,2023-08-04 08:42:20.007,9.984,11,left,7000,14000,VH,"[(1, 0), (1, 1), (2, 1), (2, 2), (1, 2), (1, 3), (0, 3), (0, 2), (4, 3)]","[(1, 0), (1, 1), (2, 1), (2, 2), (2, 3), (1, 3), (0, 3), (0, 2), (4, 3)]"
5,68,left,True,2023-08-04 08:42:37.031,2023-08-04 08:42:46.150,9.119,16,left,7000,14000,VH,"[(0, 0), (1, 0), (1, 1), (2, 1), (2, 0), (3, 0), (3, 1), (3, 2), (0, 3)]","[(0, 0), (1, 0), (1, 1), (2, 1), (2, 0), (3, 0), (3, 1), (4, 1), (0, 3)]"
5,69,left,True,2023-08-04 08:43:03.186,2023-08-04 08:43:15.270,12.084000000000001,46,left,7000,14000,VH,"[(4, 1), (4, 2), (3, 2), (3, 1), (2, 1), (2, 0), (1, 0), (1, 1), (0, 1)]","[(4, 1), (4, 2), (3, 2), (2, 2), (2, 1), (2, 0), (1, 0), (1, 1), (0, 1)]"
5,70,left,True,2023-08-04 08:43:32.307,2023-08-04 08:43:46.523,14.216000000000001,24,left,7000,14000,VH,"[(1, 4), (2, 4), (2, 3), (1, 3), (1, 2), (2, 2), (2, 1), (3, 1), (3, 0)]","[(1, 4), (2, 4), (2, 3), (1, 3), (1, 2), (1, 1), (2, 1), (3, 1), (3, 0)]"
5,71,left,True,2023-08-04 08:44:03.562,2023-08-04 08:44:11.654,8.092,86,left,7000,14000,V,"[(2, 3), (2, 2), (3, 2), (3, 3), (4, 3), (4, 4), (3, 4), (2, 4), (2, 0)]","[(2, 3), (2, 2), (3, 2), (4, 2), (4, 3), (4, 4), (3, 4), (2, 4), (2, 0)]"
5,72,left,True,2023-08-04 08:44:28.691,2023-08-04 08:44:36.720,8.029,14,left,7000,14000,V,"[(0, 3), (0, 4), (1, 4), (1, 3), (2, 3), (2, 2), (3, 2), (3, 3), (0, 0)]","[(0, 3), (0, 4), (1, 4), (2, 4), (2, 3), (2, 2), (3, 2), (3, 3), (0, 0)]"
5,73,right,True,2023-08-04 08:44:53.756,2023-08-04 08:45:01.717,7.961,65,right,7000,14000,V,"[(0, 0), (0, 1), (1, 1), (1, 0), (2, 0), (2, 1), (3, 1), (4, 1), (3, 3)]","[(0, 0), (0, 1), (1, 1), (1, 0), (2, 0), (3, 0), (3, 1), (4, 1), (3, 3)]"
5,74,right,True,2023-08-04 08:45:18.754,2023-08-04 08:45:30.451,11.697000000000001,64,right,7000,14000,V,"[(4, 0), (4, 1), (3, 1), (3, 2), (4, 2), (4, 3), (3, 3), (3, 4), (0, 2)]","[(4, 0), (4, 1), (3, 1), (3, 2), (4, 2), (4, 3), (3, 3), (2, 3), (0, 2)]"
5,75,right,True,2023-08-04 08:45:47.485,2023-08-04 08:45:56.602,9.117,18,right,7000,14000,V,"[(4, 1), (3, 1), (3, 2), (4, 2), (4, 3), (3, 3), (3, 4), (2, 4), (2, 2)]","[(4, 1), (3, 1), (3, 2), (4, 2), (4, 3), (4, 4), (3, 4), (2, 4), (2, 2)]"
5,76,right,True,2023-08-04 08:50:55.877,2023-08-04 08:50:58.594,2.717,30,right,7000,14000,VH,"[(1, 4), (0, 4), (0, 3), (1, 3), (1, 2), (0, 2), (0, 1), (0, 0), (4, 0)]","[(1, 4), (0, 4), (0, 3), (1, 3), (1, 2), (0, 2), (0, 1), (0, 0), (3, 0)]"
5,77,right,True,2023-08-04 08:51:15.632,2023-08-04 08:51:23.659,8.027000000000001,66,right,7000,14000,VH,"[(3, 0), (4, 0), (4, 1), (3, 1), (3, 2), (4, 2), (4, 3), (3, 3), (2, 2)]","[(3, 0), (4, 0), (4, 1), (3, 1), (3, 2), (4, 2), (4, 3), (4, 4), (2, 2)]"
5,78,right,False,2023-08-04 08:51:40.685,2023-08-04 08:51:55.346,14.661000000000001,23,left,7000,14000,VH,"[(4, 2), (4, 1), (3, 1), (3, 2), (2, 2), (2, 1), (1, 1), (1, 0), (2, 0)]","[(4, 2), (4, 1), (3, 1), (3, 2), (2, 2), (1, 2), (1, 1), (1, 0), (2, 0)]"
5,79,right,True,2023-08-04 08:52:12.382,2023-08-04 08:52:23.254,10.872,29,right,7000,14000,VH,"[(2, 2), (1, 2), (1, 1), (2, 1), (2, 0), (3, 0), (3, 1), (3, 2), (4, 4)]","[(2, 2), (1, 2), (1, 1), (1, 0), (2, 0), (3, 0), (3, 1), (3, 2), (4, 4)]"
5,80,right,True,2023-08-04 08:52:40.293,2023-08-04 08:52:47.421,7.128,51,right,7000,14000,VH,"[(2, 0), (1, 0), (1, 1), (2, 1), (2, 2), (3, 2), (3, 1), (4, 1), (0, 3)]","[(2, 0), (1, 0), (1, 1), (1, 2), (2, 2), (3, 2), (3, 1), (4, 1), (0, 3)]"
5,81,left,True,2023-08-04 08:53:04.457,2023-08-04 08:53:08.885,4.428,81,left,7000,14000,H,"[(4, 0), (4, 1), (3, 1), (3, 2), (4, 2), (4, 3), (3, 3), (3, 4), (1, 3)]","[(4, 0), (4, 1), (3, 1), (3, 2), (4, 2), (4, 3), (3, 3), (2, 3), (1, 3)]"
5,82,right,True,2023-08-04 08:53:25.922,2023-08-04 08:53:36.107,10.185,15,right,7000,14000,H,"[(4, 3), (4, 2), (3, 2), (3, 3), (2, 3), (2, 4), (1, 4), (0, 4), (1, 0)]","[(4, 3), (4, 2), (3, 2), (2, 2), (2, 3), (2, 4), (1, 4), (0, 4), (1, 0)]"
5,83,right,True,2023-08-04 08:53:53.143,2023-08-04 08:54:06.914,13.771,62,right,7000,14000,H,"[(1, 0), (2, 0), (2, 1), (3, 1), (3, 2), (2, 2), (2, 3), (2, 4), (0, 1)]","[(1, 0), (2, 0), (3, 0), (3, 1), (3, 2), (2, 2), (2, 3), (2, 4), (0, 1)]"
5,84,right,True,2023-08-04 08:54:23.952,2023-08-04 08:54:38.690,14.738000000000001,28,right,7000,14000,H,"[(0, 4), (0, 3), (1, 3), (1, 2), (0, 2), (0, 1), (1, 1), (1, 0), (3, 1)]","[(0, 4), (0, 3), (1, 3), (1, 2), (0, 2), (0, 1), (1, 1), (2, 1), (3, 1)]"
5,85,left,False,2023-08-04 08:54:55.729,2023-08-04 08:55:09.988,14.259,68,right,7000,14000,H,"[(0, 3), (0, 2), (1, 2), (1, 3), (2, 3), (2, 4), (1, 4), (0, 4), (4, 4)]","[(0, 3), (0, 2), (1, 2), (2, 2), (2, 3), (2, 4), (1, 4), (0, 4), (4, 4)]"
5,86,left,True,2023-08-04 08:55:27.025,2023-08-04 08:55:35.043,8.018,77,left,7000,14000,V,"[(1, 1), (2, 1), (2, 2), (1, 2), (1, 3), (2, 3), (2, 4), (1, 4), (4, 3)]","[(1, 1), (2, 1), (2, 2), (1, 2), (1, 3), (2, 3), (2, 4), (3, 4), (4, 3)]"
5,87,left,False,2023-08-04 08:55:52.079,2023-08-04 08:56:04.985,12.906,19,right,7000,14000,V,"[(4, 4), (4, 3), (3, 3), (3, 2), (2, 2), (2, 1), (3, 1), (3, 0), (0, 0)]","[(4, 4), (4, 3), (4, 2), (3, 2), (2, 2), (2, 1), (3, 1), (3, 0), (0, 0)]"
5,88,left,True,2023-08-04 08:56:22.023,2023-08-04 08:56:32.024,10.001000000000001,25,left,7000,14000,V,"[(0, 3), (0, 2), (1, 2), (1, 3), (2, 3), (2, 2), (3, 2), (3, 1), (0, 0)]","[(0, 3), (0, 2), (1, 2), (1, 3), (2, 3), (3, 3), (3, 2), (3, 1), (0, 0)]"
5,89,right,True,2023-08-04 08:56:49.054,2023-08-04 08:57:01.903,12.849,39,right,7000,14000,V,"[(4, 0), (4, 1), (3, 1), (3, 0), (2, 0), (2, 1), (1, 1), (0, 1), (1, 3)]","[(4, 0), (4, 1), (3, 1), (3, 0), (2, 0), (1, 0), (1, 1), (0, 1), (1, 3)]"
5,90,right,True,2023-08-04 08:57:18.940,2023-08-04 08:57:27.158,8.218,1,right,7000,14000,V,"[(4, 2), (4, 3), (3, 3), (3, 2), (2, 2), (2, 1), (1, 1), (1, 0), (0, 1)]","[(4, 2), (4, 3), (3, 3), (2, 3), (2, 2), (2, 1), (1, 1), (1, 0), (0, 1)]"
6,1,left,False,2023-08-04 10:57:18.659,2023-08-04 10:57:38.475,19.816000000000003,59,right,7000,14000,V,"[(0, 4), (0, 3), (1, 3), (1, 4), (2, 4), (2, 3), (3, 3), (3, 2), (2, 1)]","[(0, 4), (0, 3), (1, 3), (1, 4), (2, 4), (3, 4), (3, 3), (3, 2), (2, 1)]"
6,2,right,True,2023-08-04 10:57:55.513,2023-08-04 10:58:00.718,5.205,82,right,7000,14000,V,"[(1, 0), (1, 1), (2, 1), (2, 0), (3, 0), (3, 1), (4, 1), (4, 0), (0, 3)]","[(1, 0), (1, 1), (2, 1), (2, 0), (3, 0), (3, 1), (4, 1), (4, 2), (0, 3)]"
6,3,left,True,2023-08-04 10:58:17.755,2023-08-04 10:58:28.860,11.105,35,left,7000,14000,V,"[(4, 4), (4, 3), (3, 3), (3, 4), (2, 4), (2, 3), (1, 3), (0, 3), (1, 2)]","[(4, 4), (4, 3), (3, 3), (3, 4), (2, 4), (1, 4), (1, 3), (0, 3), (1, 2)]"
6,4,left,False,2023-08-04 10:58:45.898,2023-08-04 10:58:53.682,7.784000000000001,8,right,7000,14000,V,"[(1, 4), (2, 4), (2, 3), (1, 3), (1, 2), (0, 2), (0, 3), (0, 4), (1, 0)]","[(1, 4), (2, 4), (2, 3), (2, 2), (1, 2), (0, 2), (0, 3), (0, 4), (1, 0)]"
6,5,left,True,2023-08-04 10:59:10.718,2023-08-04 10:59:23.402,12.684000000000001,48,left,7000,14000,V,"[(2, 3), (2, 4), (3, 4), (3, 3), (4, 3), (4, 2), (3, 2), (2, 2), (0, 1)]","[(2, 3), (2, 4), (3, 4), (4, 4), (4, 3), (4, 2), (3, 2), (2, 2), (0, 1)]"
6,6,left,True,2023-08-04 10:59:40.439,2023-08-04 10:59:50.521,10.082,17,left,7000,14000,H,"[(1, 0), (2, 0), (2, 1), (1, 1), (1, 2), (2, 2), (2, 3), (3, 3), (0, 1)]","[(1, 0), (2, 0), (2, 1), (1, 1), (1, 2), (1, 3), (2, 3), (3, 3), (0, 1)]"
6,7,left,True,2023-08-04 11:00:07.559,2023-08-04 11:00:14.787,7.228000000000001,9,left,7000,14000,H,"[(3, 2), (4, 2), (4, 1), (3, 1), (3, 0), (2, 0), (2, 1), (2, 2), (3, 3)]","[(3, 2), (4, 2), (4, 1), (4, 0), (3, 0), (2, 0), (2, 1), (2, 2), (3, 3)]"
6,8,right,True,2023-08-04 11:00:31.824,2023-08-04 11:00:38.918,7.094,7,right,7000,14000,H,"[(1, 4), (1, 3), (2, 3), (2, 2), (3, 2), (3, 1), (2, 1), (1, 1), (2, 0)]","[(1, 4), (1, 3), (1, 2), (2, 2), (3, 2), (3, 1), (2, 1), (1, 1), (2, 0)]"
6,9,left,False,2023-08-04 11:00:55.956,2023-08-04 11:01:06.818,10.862,50,right,7000,14000,H,"[(4, 4), (4, 3), (3, 3), (3, 2), (2, 2), (2, 3), (1, 3), (1, 4), (0, 3)]","[(4, 4), (4, 3), (3, 3), (3, 2), (2, 2), (2, 3), (1, 3), (1, 4), (0, 4)]"
6,10,left,True,2023-08-04 11:01:23.853,2023-08-04 11:01:31.116,7.263000000000001,87,left,7000,14000,H,"[(4, 1), (4, 2), (3, 2), (3, 1), (2, 1), (2, 2), (1, 2), (1, 1), (2, 0)]","[(4, 1), (4, 2), (3, 2), (3, 1), (2, 1), (2, 2), (1, 2), (0, 2), (2, 0)]"
6,11,left,True,2023-08-04 11:01:48.152,2023-08-04 11:01:53.791,5.639,3,left,7000,14000,VH,"[(3, 4), (3, 3), (2, 3), (2, 4), (1, 4), (1, 3), (0, 3), (0, 2), (3, 2)]","[(3, 4), (3, 3), (2, 3), (2, 4), (1, 4), (0, 4), (0, 3), (0, 2), (3, 2)]"
6,12,left,True,2023-08-04 11:02:10.827,2023-08-04 11:02:15.923,5.096,78,left,7000,14000,VH,"[(3, 2), (4, 2), (4, 3), (3, 3), (3, 4), (2, 4), (2, 3), (1, 3), (1, 1)]","[(3, 2), (4, 2), (4, 3), (4, 4), (3, 4), (2, 4), (2, 3), (1, 3), (1, 1)]"
6,13,left,False,2023-08-04 11:02:32.959,2023-08-04 11:02:38.511,5.5520000000000005,26,right,7000,14000,VH,"[(1, 3), (1, 2), (2, 2), (2, 1), (3, 1), (3, 0), (2, 0), (1, 0), (4, 0)]","[(1, 3), (1, 2), (1, 1), (2, 1), (3, 1), (3, 0), (2, 0), (1, 0), (4, 0)]"
6,14,right,True,2023-08-04 11:02:55.547,2023-08-04 11:03:03.232,7.6850000000000005,74,right,7000,14000,VH,"[(0, 0), (0, 1), (1, 1), (1, 0), (2, 0), (2, 1), (3, 1), (4, 1), (4, 4)]","[(0, 0), (0, 1), (1, 1), (1, 0), (2, 0), (3, 0), (3, 1), (4, 1), (4, 4)]"
6,15,left,True,2023-08-04 11:03:20.268,2023-08-04 11:03:33.408,13.14,38,left,7000,14000,VH,"[(0, 0), (1, 0), (1, 1), (2, 1), (2, 2), (1, 2), (1, 3), (1, 4), (4, 2)]","[(0, 0), (1, 0), (2, 0), (2, 1), (2, 2), (1, 2), (1, 3), (1, 4), (4, 2)]"
6,16,right,True,2023-08-04 11:06:49.377,2023-08-04 11:06:56.949,7.572,4,right,7000,14000,VH,"[(4, 3), (4, 2), (3, 2), (3, 3), (2, 3), (2, 2), (1, 2), (1, 3), (4, 4)]","[(4, 3), (4, 2), (3, 2), (3, 3), (2, 3), (2, 2), (1, 2), (0, 2), (4, 4)]"
6,17,right,True,2023-08-04 11:07:13.987,2023-08-04 11:07:20.504,6.517,37,right,7000,14000,VH,"[(4, 0), (4, 1), (3, 1), (3, 2), (2, 2), (2, 3), (3, 3), (4, 3), (2, 1)]","[(4, 0), (4, 1), (4, 2), (3, 2), (2, 2), (2, 3), (3, 3), (4, 3), (2, 1)]"
6,18,right,False,2023-08-04 11:07:37.518,2023-08-04 11:07:44.979,7.461,30,left,7000,14000,VH,"[(1, 4), (0, 4), (0, 3), (1, 3), (1, 2), (0, 2), (0, 1), (0, 0), (4, 0)]","[(1, 4), (0, 4), (0, 3), (1, 3), (1, 2), (0, 2), (0, 1), (0, 0), (3, 0)]"
6,19,right,True,2023-08-04 11:08:02.004,2023-08-04 11:08:09.955,7.9510000000000005,89,right,7000,14000,VH,"[(0, 3), (0, 4), (1, 4), (1, 3), (2, 3), (2, 2), (3, 2), (3, 1), (2, 0)]","[(0, 3), (0, 4), (1, 4), (2, 4), (2, 3), (2, 2), (3, 2), (3, 1), (2, 0)]"
6,20,right,True,2023-08-04 11:08:26.992,2023-08-04 11:08:31.231,4.239,58,right,7000,14000,VH,"[(0, 1), (0, 0), (1, 0), (1, 1), (2, 1), (2, 0), (3, 0), (4, 0), (2, 3)]","[(0, 1), (0, 0), (1, 0), (1, 1), (2, 1), (3, 1), (3, 0), (4, 0), (2, 3)]"
6,21,left,True,2023-08-04 11:08:48.268,2023-08-04 11:08:52.352,4.0840000000000005,71,left,7000,14000,H,"[(0, 1), (1, 1), (1, 2), (2, 2), (2, 1), (3, 1), (3, 0), (4, 0), (0, 4)]","[(0, 1), (1, 1), (1, 2), (2, 2), (3, 2), (3, 1), (3, 0), (4, 0), (0, 4)]"
6,22,right,True,2023-08-04 11:09:09.389,2023-08-04 11:09:14.028,4.639,69,right,7000,14000,H,"[(3, 4), (2, 4), (2, 3), (1, 3), (1, 2), (2, 2), (2, 1), (3, 1), (0, 2)]","[(3, 4), (2, 4), (1, 4), (1, 3), (1, 2), (2, 2), (2, 1), (3, 1), (0, 2)]"
6,23,left,False,2023-08-04 11:09:31.068,2023-08-04 11:09:35.416,4.348,67,right,7000,14000,H,"[(0, 2), (0, 3), (1, 3), (1, 2), (2, 2), (2, 1), (1, 1), (1, 0), (0, 4)]","[(0, 2), (0, 3), (1, 3), (2, 3), (2, 2), (2, 1), (1, 1), (1, 0), (0, 4)]"
6,24,right,False,2023-08-04 11:09:52.452,2023-08-04 11:09:57.092,4.640000000000001,53,left,7000,14000,H,"[(1, 4), (2, 4), (2, 3), (3, 3), (3, 2), (4, 2), (4, 1), (4, 0), (1, 0)]","[(1, 4), (2, 4), (3, 4), (3, 3), (3, 2), (4, 2), (4, 1), (4, 0), (1, 0)]"
6,25,left,False,2023-08-04 11:10:14.131,2023-08-04 11:10:23.613,9.482000000000001,6,right,7000,14000,H,"[(4, 4), (4, 3), (3, 3), (3, 2), (2, 2), (2, 3), (1, 3), (1, 2), (1, 1)]","[(4, 4), (4, 3), (4, 2), (3, 2), (2, 2), (2, 3), (1, 3), (1, 2), (1, 1)]"
6,26,right,True,2023-08-04 11:10:40.650,2023-08-04 11:10:46.622,5.972,72,right,7000,14000,V,"[(4, 1), (4, 2), (3, 2), (3, 1), (2, 1), (2, 2), (1, 2), (0, 2), (0, 1)]","[(4, 1), (4, 2), (3, 2), (3, 1), (2, 1), (1, 1), (1, 2), (0, 2), (0, 1)]"
6,27,right,False,2023-08-04 11:11:03.661,2023-08-04 11:11:16.043,12.382000000000001,10,left,7000,14000,V,"[(4, 2), (4, 3), (3, 3), (3, 2), (2, 2), (2, 3), (1, 3), (0, 3), (4, 0)]","[(4, 2), (4, 3), (3, 3), (3, 2), (2, 2), (2, 3), (1, 3), (0, 3), (4, 1)]"
6,28,left,True,2023-08-04 11:11:33.081,2023-08-04 11:11:48.553,15.472000000000001,27,left,7000,14000,V,"[(0, 4), (0, 3), (1, 3), (1, 2), (2, 2), (2, 1), (1, 1), (1, 0), (4, 0)]","[(0, 4), (0, 3), (0, 2), (1, 2), (2, 2), (2, 1), (1, 1), (1, 0), (4, 0)]"
6,29,left,True,2023-08-04 11:12:05.588,2023-08-04 11:12:14.162,8.574,42,left,7000,14000,V,"[(0, 3), (0, 4), (1, 4), (1, 3), (2, 3), (2, 2), (3, 2), (3, 3), (4, 2)]","[(0, 3), (0, 4), (1, 4), (2, 4), (2, 3), (2, 2), (3, 2), (3, 3), (4, 2)]"
6,30,right,False,2023-08-04 11:12:31.198,2023-08-04 11:12:37.760,6.562,13,left,7000,14000,V,"[(4, 1), (4, 0), (3, 0), (3, 1), (2, 1), (2, 2), (3, 2), (3, 3), (0, 3)]","[(4, 1), (4, 0), (3, 0), (2, 0), (2, 1), (2, 2), (3, 2), (3, 3), (0, 3)]"
6,31,left,True,2023-08-04 11:14:56.467,2023-08-04 11:15:09.315,12.848,32,left,7000,14000,H,"[(0, 4), (1, 4), (1, 3), (2, 3), (2, 4), (3, 4), (3, 3), (3, 2), (4, 2)]","[(0, 4), (1, 4), (1, 3), (2, 3), (2, 4), (3, 4), (3, 3), (4, 3), (4, 2)]"
6,32,right,True,2023-08-04 11:15:26.354,2023-08-04 11:15:31.637,5.283,43,right,7000,14000,H,"[(1, 3), (2, 3), (2, 2), (3, 2), (3, 3), (4, 3), (4, 4), (3, 4), (2, 4)]","[(1, 3), (2, 3), (2, 2), (3, 2), (4, 2), (4, 3), (4, 4), (3, 4), (2, 4)]"
6,33,left,False,2023-08-04 11:15:48.673,2023-08-04 11:15:59.313,10.64,41,right,7000,14000,H,"[(1, 0), (1, 1), (2, 1), (2, 2), (3, 2), (3, 1), (4, 1), (4, 0), (2, 3)]","[(1, 0), (1, 1), (1, 2), (2, 2), (3, 2), (3, 1), (4, 1), (4, 0), (2, 3)]"
6,34,left,True,2023-08-04 11:16:16.349,2023-08-04 11:16:25.423,9.074,56,left,7000,14000,H,"[(2, 0), (1, 0), (1, 1), (0, 1), (0, 2), (1, 2), (1, 3), (2, 3), (3, 4)]","[(2, 0), (1, 0), (0, 0), (0, 1), (0, 2), (1, 2), (1, 3), (2, 3), (3, 4)]"
6,35,left,True,2023-08-04 11:16:42.460,2023-08-04 11:16:49.953,7.493,55,left,7000,14000,H,"[(3, 4), (4, 4), (4, 3), (3, 3), (3, 2), (4, 2), (4, 1), (4, 0), (2, 2)]","[(3, 4), (4, 4), (4, 3), (3, 3), (3, 2), (3, 1), (4, 1), (4, 0), (2, 2)]"
6,36,left,True,2023-08-04 11:17:06.991,2023-08-04 11:17:15.429,8.438,52,left,7000,14000,V,"[(4, 4), (3, 4), (3, 3), (4, 3), (4, 2), (3, 2), (3, 1), (4, 1), (0, 4)]","[(4, 4), (3, 4), (3, 3), (4, 3), (4, 2), (3, 2), (3, 1), (2, 1), (0, 4)]"
6,37,right,True,2023-08-04 11:17:32.466,2023-08-04 11:17:37.151,4.6850000000000005,45,right,7000,14000,V,"[(0, 3), (0, 4), (1, 4), (1, 3), (2, 3), (2, 4), (3, 4), (4, 4), (3, 0)]","[(0, 3), (0, 4), (1, 4), (1, 3), (2, 3), (3, 3), (3, 4), (4, 4), (3, 0)]"
6,38,right,True,2023-08-04 11:17:54.188,2023-08-04 11:18:01.293,7.105,22,right,7000,14000,V,"[(4, 0), (3, 0), (3, 1), (2, 1), (2, 0), (1, 0), (1, 1), (1, 2), (3, 4)]","[(4, 0), (3, 0), (3, 1), (2, 1), (2, 0), (1, 0), (1, 1), (0, 1), (3, 4)]"
6,39,left,True,2023-08-04 11:18:18.330,2023-08-04 11:18:20.481,2.1510000000000002,61,left,7000,14000,V,"[(2, 3), (3, 3), (3, 2), (2, 2), (2, 1), (3, 1), (3, 0), (2, 0), (1, 1)]","[(2, 3), (3, 3), (3, 2), (2, 2), (2, 1), (3, 1), (3, 0), (4, 0), (1, 1)]"
6,40,left,True,2023-08-04 11:18:37.519,2023-08-04 11:18:41.335,3.8160000000000003,57,left,7000,14000,V,"[(4, 1), (4, 2), (3, 2), (3, 3), (2, 3), (2, 2), (1, 2), (0, 2), (0, 3)]","[(4, 1), (4, 2), (4, 3), (3, 3), (2, 3), (2, 2), (1, 2), (0, 2), (0, 3)]"
6,41,right,True,2023-08-04 11:18:58.373,2023-08-04 11:19:00.811,2.438,63,right,7000,14000,VH,"[(0, 3), (1, 3), (1, 2), (0, 2), (0, 1), (1, 1), (1, 0), (0, 0), (2, 4)]","[(0, 3), (1, 3), (1, 2), (0, 2), (0, 1), (1, 1), (1, 0), (2, 0), (2, 4)]"
6,42,right,True,2023-08-04 11:19:17.849,2023-08-04 11:19:21.032,3.1830000000000003,54,right,7000,14000,VH,"[(4, 3), (3, 3), (3, 2), (2, 2), (2, 1), (1, 1), (1, 2), (0, 2), (1, 3)]","[(4, 3), (3, 3), (2, 3), (2, 2), (2, 1), (1, 1), (1, 2), (0, 2), (1, 3)]"
6,43,left,True,2023-08-04 11:19:38.059,2023-08-04 11:19:41.166,3.107,73,left,7000,14000,VH,"[(4, 2), (4, 1), (3, 1), (3, 2), (2, 2), (2, 1), (1, 1), (1, 2), (1, 4)]","[(4, 2), (4, 1), (3, 1), (3, 2), (2, 2), (2, 1), (1, 1), (0, 1), (1, 4)]"
6,44,left,True,2023-08-04 11:19:58.204,2023-08-04 11:20:02.875,4.671,83,left,7000,14000,VH,"[(3, 2), (4, 2), (4, 3), (3, 3), (3, 4), (2, 4), (2, 3), (2, 2), (0, 3)]","[(3, 2), (4, 2), (4, 3), (4, 4), (3, 4), (2, 4), (2, 3), (2, 2), (0, 3)]"
6,45,right,True,2023-08-04 11:20:19.913,2023-08-04 11:20:23.918,4.005,44,right,7000,14000,VH,"[(4, 3), (4, 4), (3, 4), (3, 3), (2, 3), (2, 2), (3, 2), (4, 2), (4, 0)]","[(4, 3), (4, 4), (3, 4), (2, 4), (2, 3), (2, 2), (3, 2), (4, 2), (4, 0)]"
